Frequency (Hz)	Level (dB)
23.437500	-54.293804
46.875000	-46.509518
70.312500	-50.668331
93.750000	-60.866203
117.187500	-63.663239
140.625000	-71.547127
164.062500	-73.997520
187.500000	-76.378105
210.937500	-77.657143
234.375000	-79.328201
257.812500	-77.862740
281.250000	-75.351311
304.687500	-72.606064
328.125000	-74.712814
351.562500	-71.034637
375.000000	-76.700150
398.437500	-78.538483
421.875000	-79.465508
445.312500	-73.051163
468.750000	-75.394318
492.187500	-81.102425
515.625000	-82.850227
539.062500	-83.148796
562.500000	-85.183571
585.937500	-88.271210
609.375000	-87.590164
632.812500	-77.751312
656.250000	-74.629120
679.687500	-83.348785
703.125000	-89.649666
726.562500	-83.853912
750.000000	-77.595657
773.437500	-82.573425
796.875000	-86.100731
820.312500	-87.824074
843.750000	-84.058090
867.187500	-84.429779
890.625000	-84.490150
914.062500	-80.545982
937.500000	-78.052902
960.937500	-79.011383
984.375000	-87.933578
1007.812500	-90.204346
1031.250000	-92.206276
1054.687500	-91.692673
1078.125000	-96.096420
1101.562500	-95.227394
1125.000000	-94.553421
1148.437500	-88.460747
1171.875000	-92.624733
1195.312500	-100.947929
1218.750000	-98.110909
1242.187500	-87.802307
1265.625000	-88.788361
1289.062500	-94.722610
1312.500000	-94.699806
1335.937500	-93.791443
1359.375000	-92.052612
1382.812500	-98.155212
1406.250000	-97.192680
1429.687500	-98.923714
1453.125000	-95.313522
1476.562500	-92.876328
1500.000000	-90.556152
1523.437500	-92.778145
1546.875000	-90.723457
1570.312500	-90.363960
1593.750000	-91.170815
1617.187500	-91.722916
1640.625000	-92.111664
1664.062500	-93.608734
1687.500000	-94.651337
1710.937500	-93.644135
1734.375000	-92.738823
1757.812500	-90.599503
1781.250000	-92.634315
1804.687500	-91.887703
1828.125000	-92.511276
1851.562500	-91.004921
1875.000000	-88.507362
1898.437500	-85.331421
1921.875000	-82.377525
1945.312500	-78.944168
1968.750000	-76.128853
1992.187500	-75.275764
2015.625000	-77.702370
2039.062500	-81.424164
2062.500000	-79.647545
2085.937500	-75.414070
2109.375000	-74.573265
2132.812500	-76.366432
2156.250000	-78.729172
2179.687500	-81.705147
2203.125000	-85.269386
2226.562500	-87.863441
2250.000000	-88.824539
2273.437500	-89.209579
2296.875000	-90.093643
2320.312500	-92.250092
2343.750000	-93.997009
2367.187500	-94.864952
2390.625000	-94.951515
2414.062500	-97.098480
2437.500000	-100.534912
2460.937500	-96.362396
2484.375000	-93.046700
2507.812500	-90.252151
2531.250000	-88.831100
2554.687500	-88.199097
2578.125000	-88.341431
2601.562500	-88.634201
2625.000000	-89.025322
2648.437500	-89.296661
2671.875000	-91.189232
2695.312500	-92.405891
2718.750000	-90.867538
2742.187500	-90.526314
2765.625000	-92.552696
2789.062500	-95.035912
2812.500000	-98.501572
2835.937500	-99.227707
2859.375000	-93.773911
2882.812500	-92.614540
2906.250000	-91.746582
2929.687500	-89.009338
2953.125000	-86.670708
2976.562500	-85.366203
3000.000000	-85.486763
3023.437500	-86.211845
3046.875000	-86.630180
3070.312500	-86.323158
3093.750000	-85.316925
3117.187500	-84.636009
3140.625000	-85.715485
3164.062500	-88.233032
3187.500000	-92.163628
3210.937500	-90.820229
3234.375000	-87.831993
3257.812500	-84.207199
3281.250000	-78.065895
3304.687500	-73.140556
3328.125000	-70.700584
3351.562500	-70.353600
3375.000000	-71.524002
3398.437500	-72.815041
3421.875000	-74.531647
3445.312500	-75.971481
3468.750000	-76.522865
3492.187500	-76.661903
3515.625000	-77.320625
3539.062500	-79.853287
3562.500000	-83.371193
3585.937500	-87.774223
3609.375000	-93.584198
3632.812500	-94.614876
3656.250000	-87.993752
3679.687500	-84.371918
3703.125000	-82.827530
3726.562500	-81.499374
3750.000000	-79.899712
3773.437500	-79.640160
3796.875000	-79.438965
3820.312500	-79.147560
3843.750000	-79.442177
3867.187500	-79.646965
3890.625000	-79.439522
3914.062500	-79.484467
3937.500000	-78.596741
3960.937500	-77.004227
3984.375000	-75.530693
4007.812500	-75.023056
4031.250000	-75.551422
4054.687500	-76.135902
4078.125000	-76.298248
4101.562500	-76.473701
4125.000000	-76.331833
4148.437500	-76.186966
4171.875000	-75.900909
4195.312500	-76.220894
4218.750000	-77.280029
4242.187500	-78.345970
4265.625000	-80.329514
4289.062500	-82.522598
4312.500000	-83.088074
4335.937500	-82.714417
4359.375000	-82.307617
4382.812500	-81.816132
4406.250000	-81.511162
4429.687500	-81.905800
4453.125000	-82.083572
4476.562500	-82.094398
4500.000000	-81.526718
4523.437500	-81.414330
4546.875000	-80.736778
4570.312500	-79.709602
4593.750000	-79.141235
4617.187500	-78.630875
4640.625000	-78.375786
4664.062500	-78.724388
4687.500000	-79.275368
4710.937500	-79.554329
4734.375000	-79.230865
4757.812500	-78.998245
4781.250000	-78.702911
4804.687500	-78.717522
4828.125000	-78.573891
4851.562500	-78.155739
4875.000000	-77.656296
4898.437500	-76.415817
4921.875000	-75.277679
4945.312500	-74.886612
4968.750000	-75.518288
4992.187500	-75.974510
5015.625000	-76.488052
5039.062500	-77.980179
5062.500000	-79.756538
5085.937500	-80.227798
5109.375000	-78.975182
5132.812500	-77.615021
5156.250000	-77.068108
5179.687500	-77.439667
5203.125000	-78.680084
5226.562500	-79.791946
5250.000000	-80.454628
5273.437500	-81.756042
5296.875000	-83.037842
5320.312500	-84.367630
5343.750000	-85.049034
5367.187500	-85.170654
5390.625000	-85.458939
5414.062500	-87.373718
5437.500000	-91.114792
5460.937500	-91.422516
5484.375000	-86.363655
5507.812500	-82.337723
5531.250000	-78.665268
5554.687500	-75.862747
5578.125000	-74.258423
5601.562500	-72.793884
5625.000000	-71.587692
5648.437500	-71.651413
5671.875000	-72.091072
5695.312500	-73.031059
5718.750000	-74.220497
5742.187500	-75.956894
5765.625000	-77.566170
5789.062500	-79.197258
5812.500000	-82.487625
5835.937500	-87.821106
5859.375000	-92.543396
5882.812500	-88.231018
5906.250000	-85.131409
5929.687500	-83.037827
5953.125000	-82.404106
5976.562500	-82.191826
6000.000000	-81.558083
6023.437500	-80.565811
6046.875000	-79.414886
6070.312500	-79.334114
6093.750000	-79.635300
6117.187500	-80.040100
6140.625000	-80.949348
6164.062500	-80.894875
6187.500000	-80.307129
6210.937500	-79.894211
6234.375000	-80.038239
6257.812500	-80.071213
6281.250000	-80.349716
6304.687500	-81.300018
6328.125000	-82.647476
6351.562500	-83.588516
6375.000000	-84.348900
6398.437500	-85.155899
6421.875000	-85.951691
6445.312500	-87.155823
6468.750000	-89.248123
6492.187500	-91.702415
6515.625000	-93.831978
6539.062500	-93.869713
6562.500000	-91.609962
6585.937500	-89.058861
6609.375000	-87.529037
6632.812500	-86.412750
6656.250000	-85.482399
6679.687500	-84.332664
6703.125000	-83.404259
6726.562500	-83.531158
6750.000000	-83.739761
6773.437500	-83.945366
6796.875000	-84.760139
6820.312500	-84.939461
6843.750000	-84.627266
6867.187500	-83.663040
6890.625000	-83.051872
6914.062500	-82.457565
6937.500000	-81.859718
6960.937500	-81.855965
6984.375000	-82.168442
7007.812500	-82.412819
7031.250000	-82.972389
7054.687500	-83.664223
7078.125000	-84.986465
7101.562500	-86.390961
7125.000000	-88.199371
7148.437500	-89.645096
7171.875000	-89.329590
7195.312500	-88.510765
7218.750000	-88.723068
7242.187500	-88.870087
7265.625000	-88.911133
7289.062500	-88.183907
7312.500000	-87.461540
7335.937500	-86.695213
7359.375000	-85.782455
7382.812500	-85.041534
7406.250000	-84.423866
7429.687500	-83.897469
7453.125000	-83.832924
7476.562500	-84.165955
7500.000000	-84.555534
7523.437500	-85.231476
7546.875000	-86.180008
7570.312500	-86.973572
7593.750000	-88.260017
7617.187500	-89.016373
7640.625000	-89.375534
7664.062500	-89.706398
7687.500000	-89.654457
7710.937500	-89.314926
7734.375000	-89.525169
7757.812500	-89.075378
7781.250000	-88.974052
7804.687500	-89.293106
7828.125000	-89.037552
7851.562500	-89.305054
7875.000000	-89.793800
7898.437500	-90.053062
7921.875000	-90.145332
7945.312500	-89.755440
7968.750000	-89.527374
7992.187500	-89.279739
8015.625000	-89.178040
8039.062500	-89.245224
8062.500000	-89.006264
8085.937500	-88.807175
8109.375000	-89.160423
8132.812500	-89.352226
8156.250000	-90.018616
8179.687500	-90.264839
8203.125000	-91.293686
8226.562500	-91.724861
8250.000000	-91.933174
8273.437500	-92.452301
8296.875000	-93.328911
8320.312500	-94.602074
8343.750000	-95.525627
8367.187500	-96.522697
8390.625000	-98.590759
8414.062500	-99.957863
8437.500000	-101.509636
8460.937500	-102.227173
8484.375000	-104.657944
8507.812500	-107.274620
8531.250000	-109.064262
8554.687500	-108.394615
8578.125000	-108.830429
8601.562500	-106.992432
8625.000000	-104.831253
8648.437500	-102.633812
8671.875000	-100.239632
8695.312500	-99.407906
8718.750000	-99.139816
8742.187500	-99.200630
8765.625000	-99.186623
8789.062500	-99.369690
8812.500000	-100.470909
8835.937500	-100.287415
8859.375000	-99.749046
8882.812500	-99.799141
8906.250000	-99.261734
8929.687500	-99.212036
8953.125000	-99.094414
8976.562500	-99.176430
9000.000000	-98.987877
9023.437500	-98.018761
9046.875000	-96.045837
9070.312500	-94.238785
9093.750000	-93.037994
9117.187500	-91.650604
9140.625000	-90.752220
9164.062500	-89.853088
9187.500000	-89.248276
9210.937500	-88.963402
9234.375000	-88.517113
9257.812500	-87.763519
9281.250000	-86.899857
9304.687500	-86.489349
9328.125000	-86.023651
9351.562500	-85.674728
9375.000000	-85.697433
9398.437500	-85.663910
9421.875000	-86.052444
9445.312500	-86.813866
9468.750000	-87.326210
9492.187500	-87.889153
9515.625000	-87.791908
9539.062500	-87.402763
9562.500000	-87.126572
9585.937500	-86.742661
9609.375000	-85.773247
9632.812500	-85.476593
9656.250000	-85.063324
9679.687500	-84.726494
9703.125000	-85.234085
9726.562500	-85.574898
9750.000000	-85.948730
9773.437500	-86.377502
9796.875000	-86.758530
9820.312500	-87.066254
9843.750000	-87.770363
9867.187500	-88.784462
9890.625000	-90.208870
9914.062500	-91.797417
9937.500000	-92.268379
9960.937500	-93.828041
9984.375000	-96.281624
10007.812500	-97.280388
10031.250000	-96.026047
10054.687500	-94.801239
10078.125000	-95.655182
10101.562500	-95.636398
10125.000000	-94.166718
10148.437500	-92.939217
10171.875000	-92.929314
10195.312500	-92.657097
10218.750000	-92.379898
10242.187500	-92.383194
10265.625000	-91.644249
10289.062500	-91.112778
10312.500000	-90.345314
10335.937500	-90.422150
10359.375000	-90.726540
10382.812500	-91.143875
10406.250000	-91.443497
10429.687500	-91.475838
10453.125000	-91.549957
10476.562500	-91.544403
10500.000000	-90.930756
10523.437500	-89.842064
10546.875000	-88.492119
10570.312500	-87.052452
10593.750000	-85.706261
10617.187500	-84.272087
10640.625000	-83.346359
10664.062500	-83.081703
10687.500000	-82.430550
10710.937500	-81.416672
10734.375000	-80.512863
10757.812500	-80.341385
10781.250000	-79.875877
10804.687500	-79.618011
10828.125000	-79.578331
10851.562500	-78.789436
10875.000000	-78.629211
10898.437500	-78.352829
10921.875000	-78.261398
10945.312500	-78.355637
10968.750000	-78.711723
10992.187500	-78.676277
11015.625000	-78.189857
11039.062500	-78.289955
11062.500000	-78.496330
11085.937500	-78.589394
11109.375000	-78.907219
11132.812500	-78.940926
11156.250000	-79.166237
11179.687500	-79.684631
11203.125000	-79.962296
11226.562500	-79.866798
11250.000000	-80.550934
11273.437500	-81.247620
11296.875000	-81.520653
11320.312500	-81.993431
11343.750000	-82.238602
11367.187500	-82.436592
11390.625000	-82.611351
11414.062500	-82.793983
11437.500000	-82.893852
11460.937500	-82.497375
11484.375000	-82.072876
11507.812500	-81.332870
11531.250000	-80.641006
11554.687500	-80.046753
11578.125000	-79.966606
11601.562500	-79.510826
11625.000000	-79.052643
11648.437500	-78.837288
11671.875000	-78.630386
11695.312500	-78.571114
11718.750000	-78.596581
11742.187500	-78.702881
11765.625000	-78.548927
11789.062500	-78.523590
11812.500000	-78.160286
11835.937500	-78.158440
11859.375000	-77.932289
11882.812500	-78.120384
11906.250000	-77.848076
11929.687500	-77.878433
11953.125000	-78.244865
11976.562500	-78.550392
12000.000000	-78.629601
12023.437500	-78.833694
12046.875000	-78.597565
12070.312500	-78.918427
12093.750000	-79.386719
12117.187500	-79.320053
12140.625000	-79.790657
12164.062500	-79.674713
12187.500000	-79.591248
12210.937500	-79.657852
12234.375000	-79.473145
12257.812500	-79.819229
12281.250000	-79.824036
12304.687500	-80.052521
12328.125000	-80.230377
12351.562500	-80.829247
12375.000000	-81.647102
12398.437500	-82.308990
12421.875000	-82.576691
12445.312500	-83.062836
12468.750000	-83.516205
12492.187500	-83.638489
12515.625000	-84.071609
12539.062500	-84.560997
12562.500000	-84.130478
12585.937500	-83.502899
12609.375000	-82.939377
12632.812500	-82.540634
12656.250000	-82.064796
12679.687500	-81.542480
12703.125000	-81.125687
12726.562500	-81.206207
12750.000000	-81.154167
12773.437500	-81.206520
12796.875000	-81.612465
12820.312500	-81.821739
12843.750000	-82.164009
12867.187500	-82.737427
12890.625000	-83.372246
12914.062500	-84.387917
12937.500000	-85.700188
12960.937500	-86.335213
12984.375000	-86.641891
13007.812500	-86.652451
13031.250000	-85.794533
13054.687500	-84.340263
13078.125000	-83.382912
13101.562500	-82.823738
13125.000000	-82.299767
13148.437500	-81.555122
13171.875000	-81.237610
13195.312500	-80.807564
13218.750000	-80.513840
13242.187500	-80.200142
13265.625000	-79.939301
13289.062500	-80.019058
13312.500000	-80.272049
13335.937500	-80.351875
13359.375000	-80.376114
13382.812500	-80.423203
13406.250000	-80.346336
13429.687500	-80.371506
13453.125000	-80.320236
13476.562500	-80.664909
13500.000000	-80.356316
13523.437500	-80.516975
13546.875000	-80.934845
13570.312500	-80.688515
13593.750000	-80.521057
13617.187500	-80.968407
13640.625000	-81.408333
13664.062500	-81.577919
13687.500000	-82.052032
13710.937500	-82.216072
13734.375000	-82.103691
13757.812500	-82.152206
13781.250000	-82.473763
13804.687500	-82.646812
13828.125000	-82.368256
13851.562500	-82.314957
13875.000000	-82.278290
13898.437500	-82.427330
13921.875000	-82.636459
13945.312500	-82.520782
13968.750000	-82.516190
13992.187500	-82.785881
14015.625000	-82.409904
14039.062500	-82.309860
14062.500000	-82.485909
14085.937500	-82.555878
14109.375000	-82.441719
14132.812500	-82.314323
14156.250000	-81.969666
14179.687500	-81.623543
14203.125000	-81.556435
14226.562500	-81.305252
14250.000000	-80.798103
14273.437500	-81.037537
14296.875000	-81.562569
14320.312500	-81.608093
14343.750000	-81.599007
14367.187500	-81.585327
14390.625000	-81.482094
14414.062500	-81.979172
14437.500000	-82.438225
14460.937500	-82.371994
14484.375000	-82.669006
14507.812500	-83.359489
14531.250000	-83.653961
14554.687500	-83.227997
14578.125000	-83.351547
14601.562500	-83.717354
14625.000000	-83.686478
14648.437500	-83.828087
14671.875000	-83.855072
14695.312500	-83.627495
14718.750000	-83.458267
14742.187500	-83.307625
14765.625000	-83.358192
14789.062500	-83.717262
14812.500000	-83.624557
14835.937500	-83.637360
14859.375000	-83.116478
14882.812500	-82.938461
14906.250000	-83.019585
14929.687500	-83.048164
14953.125000	-83.067223
14976.562500	-82.939842
15000.000000	-82.651169
15023.437500	-82.990860
15046.875000	-82.834106
15070.312500	-82.779434
15093.750000	-82.525673
15117.187500	-82.443390
15140.625000	-82.754318
15164.062500	-83.223312
15187.500000	-83.110115
15210.937500	-83.653900
15234.375000	-83.706963
15257.812500	-84.151596
15281.250000	-84.756920
15304.687500	-85.005875
15328.125000	-85.427147
15351.562500	-85.545906
15375.000000	-85.852104
15398.437500	-86.131821
15421.875000	-86.356583
15445.312500	-86.663101
15468.750000	-87.186508
15492.187500	-87.805031
15515.625000	-88.024666
15539.062500	-88.119881
15562.500000	-88.501709
15585.937500	-88.894707
15609.375000	-89.302475
15632.812500	-89.639488
15656.250000	-90.094139
15679.687500	-90.519592
15703.125000	-90.547157
15726.562500	-90.628082
15750.000000	-90.033180
15773.437500	-90.194862
15796.875000	-90.291428
15820.312500	-90.144806
15843.750000	-89.517265
15867.187500	-89.577026
15890.625000	-89.800110
15914.062500	-90.188354
15937.500000	-90.265457
15960.937500	-90.226387
15984.375000	-90.364006
16007.812500	-90.518097
16031.250000	-90.760445
16054.687500	-91.217026
16078.125000	-91.591270
16101.562500	-92.088570
16125.000000	-92.537460
16148.437500	-93.392548
16171.875000	-93.897224
16195.312500	-95.050087
16218.750000	-96.255135
16242.187500	-97.014618
16265.625000	-97.557762
16289.062500	-98.487877
16312.500000	-99.306847
16335.937500	-99.959564
16359.375000	-99.790497
16382.812500	-99.948822
16406.250000	-101.314148
16429.687500	-101.553398
16453.125000	-100.819984
16476.562500	-100.360397
16500.000000	-102.015305
16523.437500	-102.454689
16546.875000	-102.697716
16570.312500	-101.396156
16593.750000	-102.959160
16617.187500	-104.115051
16640.625000	-103.600082
16664.062500	-101.207870
16687.500000	-101.541641
16710.937500	-103.129967
16734.375000	-102.925018
16757.812500	-102.145378
16781.250000	-102.030106
16804.687500	-102.582970
16828.125000	-102.329140
16851.562500	-101.132462
16875.000000	-99.099205
16898.437500	-101.399605
16921.875000	-102.160477
16945.312500	-102.186264
16968.750000	-101.291649
16992.187500	-102.058601
17015.625000	-102.661629
17039.062500	-102.455276
17062.500000	-101.973488
17085.937500	-102.131126
17109.375000	-102.629753
17132.812500	-102.388550
17156.250000	-100.851212
17179.687500	-99.602417
17203.125000	-101.665611
17226.562500	-101.893074
17250.000000	-101.565277
17273.437500	-100.191093
17296.875000	-100.724167
17320.312500	-100.786034
17343.750000	-100.837555
17367.187500	-97.842430
17390.625000	-98.854034
17414.062500	-100.583443
17437.500000	-100.995796
17460.937500	-99.328735
17484.375000	-98.680855
17507.812500	-99.940735
17531.250000	-99.958794
17554.687500	-99.615265
17578.125000	-98.775688
17601.562500	-99.360214
17625.000000	-99.608330
17648.437500	-99.631340
17671.875000	-98.343170
17695.312500	-99.078285
17718.750000	-99.559036
17742.187500	-99.689209
17765.625000	-98.890999
17789.062500	-98.933830
17812.500000	-99.522736
17835.937500	-99.923874
17859.375000	-99.339256
17882.812500	-98.524109
17906.250000	-99.602699
17929.687500	-99.725845
17953.125000	-98.936417
17976.562500	-93.242630
18000.000000	-94.429932
18023.437500	-99.371216
18046.875000	-99.629723
18070.312500	-98.608940
18093.750000	-99.203842
18117.187500	-99.895035
18140.625000	-99.556564
18164.062500	-97.431183
18187.500000	-97.645699
18210.937500	-99.974670
18234.375000	-99.584221
18257.812500	-98.068970
18281.250000	-96.791046
18304.687500	-98.932320
18328.125000	-99.033775
18351.562500	-98.784973
18375.000000	-97.052078
18398.437500	-98.467865
18421.875000	-99.385971
18445.312500	-99.088196
18468.750000	-97.119919
18492.187500	-97.907921
18515.625000	-98.878494
18539.062500	-98.897720
18562.500000	-98.451096
18585.937500	-98.348969
18609.375000	-99.293564
18632.812500	-99.037651
18656.250000	-98.132118
18679.687500	-96.850830
18703.125000	-98.806618
18726.562500	-98.892349
18750.000000	-98.719612
18773.437500	-96.561386
18796.875000	-98.364441
18820.312500	-99.416489
18843.750000	-99.364830
18867.187500	-98.175224
18890.625000	-98.319855
18914.062500	-99.394478
18937.500000	-99.370308
18960.937500	-97.559479
18984.375000	-96.750351
19007.812500	-98.886101
19031.250000	-99.017227
19054.687500	-98.763260
19078.125000	-97.400085
19101.562500	-98.681465
19125.000000	-98.633926
19148.437500	-98.667023
19171.875000	-95.822075
19195.312500	-97.185707
19218.750000	-97.951904
19242.187500	-98.147545
19265.625000	-97.094955
19289.062500	-96.955963
19312.500000	-98.279274
19335.937500	-98.228416
19359.375000	-97.737717
19382.812500	-97.390060
19406.250000	-98.530441
19429.687500	-98.424767
19453.125000	-97.969963
19476.562500	-96.038353
19500.000000	-97.957008
19523.437500	-98.693062
19546.875000	-98.580757
19570.312500	-96.786530
19593.750000	-97.334122
19617.187500	-98.516541
19640.625000	-98.264946
19664.062500	-96.877625
19687.500000	-96.845947
19710.937500	-98.476158
19734.375000	-98.759560
19757.812500	-98.922287
19781.250000	-97.952240
19804.687500	-98.730949
19828.125000	-98.815781
19851.562500	-98.832413
19875.000000	-98.404686
19898.437500	-98.709824
19921.875000	-98.834816
19945.312500	-99.087204
19968.750000	-97.128410
19992.187500	-97.546104
20015.625000	-99.437157
20039.062500	-99.853745
20062.500000	-99.583237
20085.937500	-99.258369
20109.375000	-99.950706
20132.812500	-99.811798
20156.250000	-100.451576
20179.687500	-99.925629
20203.125000	-100.596703
20226.562500	-100.290977
20250.000000	-100.334328
20273.437500	-100.229385
20296.875000	-101.022888
20320.312500	-101.003494
20343.750000	-101.294029
20367.187500	-100.955070
20390.625000	-100.951889
20414.062500	-101.967438
20437.500000	-102.217178
20460.937500	-100.989388
20484.375000	-99.897308
20507.812500	-101.971611
20531.250000	-102.645012
20554.687500	-102.823753
20578.125000	-102.297638
20601.562500	-102.817772
20625.000000	-102.600517
20648.437500	-102.709869
20671.875000	-101.561378
20695.312500	-102.125641
20718.750000	-103.080925
20742.187500	-103.528893
20765.625000	-102.939362
20789.062500	-102.828781
20812.500000	-103.745811
20835.937500	-103.659073
20859.375000	-103.759842
20882.812500	-103.137535
20906.250000	-103.974518
20929.687500	-104.071701
20953.125000	-104.255638
20976.562500	-103.269676
21000.000000	-103.645264
21023.437500	-104.081306
21046.875000	-104.243965
21070.312500	-104.182350
21093.750000	-104.322929
21117.187500	-104.588058
21140.625000	-104.745384
21164.062500	-103.965874
21187.500000	-103.721565
21210.937500	-104.604210
21234.375000	-104.924278
21257.812500	-104.840630
21281.250000	-104.415321
21304.687500	-105.008209
21328.125000	-104.861465
21351.562500	-104.892113
21375.000000	-104.475136
21398.437500	-104.841812
21421.875000	-104.788597
21445.312500	-105.230087
21468.750000	-105.268066
21492.187500	-105.205185
21515.625000	-105.460831
21539.062500	-105.535469
21562.500000	-105.190659
21585.937500	-104.693108
21609.375000	-105.236374
21632.812500	-105.543442
21656.250000	-105.565491
21679.687500	-105.216194
21703.125000	-105.342087
21726.562500	-105.444809
21750.000000	-105.841171
21773.437500	-105.456451
21796.875000	-105.302605
21820.312500	-105.848900
21843.750000	-105.953300
21867.187500	-105.849655
21890.625000	-105.932854
21914.062500	-106.062347
21937.500000	-106.119720
21960.937500	-106.124268
21984.375000	-106.124237
22007.812500	-106.355339
22031.250000	-106.210594
22054.687500	-106.231766
22078.125000	-105.710281
22101.562500	-106.453766
22125.000000	-106.561829
22148.437500	-106.401024
22171.875000	-106.188126
22195.312500	-106.548157
22218.750000	-106.573174
22242.187500	-106.172607
22265.625000	-105.783630
22289.062500	-105.814034
22312.500000	-106.464050
22335.937500	-106.352966
22359.375000	-106.791016
22382.812500	-106.388504
22406.250000	-106.770096
22429.687500	-106.740471
22453.125000	-106.466713
22476.562500	-106.125893
22500.000000	-106.191093
22523.437500	-106.333252
22546.875000	-106.478119
22570.312500	-105.710075
22593.750000	-104.543388
22617.187500	-106.091858
22640.625000	-107.088219
22664.062500	-106.805344
22687.500000	-106.355057
22710.937500	-106.865097
22734.375000	-107.456596
22757.812500	-107.123528
22781.250000	-106.509315
22804.687500	-106.779991
22828.125000	-106.917374
22851.562500	-106.807594
22875.000000	-107.000244
22898.437500	-107.192268
22921.875000	-107.070435
22945.312500	-106.853241
22968.750000	-106.515976
22992.187500	-106.626030
23015.625000	-107.226341
23039.062500	-107.524094
23062.500000	-107.240150
23085.937500	-107.258705
23109.375000	-107.357079
23132.812500	-107.332054
23156.250000	-107.255722
23179.687500	-107.371124
23203.125000	-107.450508
23226.562500	-107.291779
23250.000000	-107.122955
23273.437500	-106.942818
23296.875000	-107.128075
23320.312500	-107.233116
23343.750000	-107.192711
23367.187500	-107.492828
23390.625000	-107.456383
23414.062500	-107.356575
23437.500000	-107.323685
23460.937500	-107.453033
23484.375000	-107.324631
23507.812500	-107.299866
23531.250000	-107.378479
23554.687500	-107.484711
23578.125000	-107.672371
23601.562500	-107.609512
23625.000000	-107.455498
23648.437500	-107.588478
23671.875000	-107.800087
23695.312500	-107.716103
23718.750000	-107.610016
23742.187500	-107.432938
23765.625000	-107.815094
23789.062500	-107.548035
23812.500000	-107.438927
23835.937500	-107.516739
23859.375000	-107.358124
23882.812500	-107.114380
23906.250000	-107.210434
23929.687500	-107.499229
23953.125000	-107.561279
23976.562500	-107.784508
