Frequency (Hz)	Level (dB)
23.437500	-53.090359
46.875000	-45.305019
70.312500	-49.628326
93.750000	-58.490143
117.187500	-59.309593
140.625000	-71.941360
164.062500	-75.170624
187.500000	-74.662537
210.937500	-77.663376
234.375000	-81.892433
257.812500	-79.993454
281.250000	-76.313553
304.687500	-72.941841
328.125000	-73.189659
351.562500	-69.097397
375.000000	-75.617378
398.437500	-78.914650
421.875000	-79.196899
445.312500	-73.928551
468.750000	-74.725273
492.187500	-77.166222
515.625000	-82.111435
539.062500	-82.358223
562.500000	-81.006729
585.937500	-80.970940
609.375000	-83.300827
632.812500	-74.188705
656.250000	-71.731483
679.687500	-81.532494
703.125000	-88.924149
726.562500	-84.349373
750.000000	-79.056488
773.437500	-84.695206
796.875000	-85.929054
820.312500	-89.004166
843.750000	-86.717667
867.187500	-89.002838
890.625000	-91.930000
914.062500	-88.802269
937.500000	-77.230675
960.937500	-76.598030
984.375000	-79.183105
1007.812500	-81.276573
1031.250000	-87.827087
1054.687500	-89.669594
1078.125000	-90.819519
1101.562500	-91.210144
1125.000000	-90.126411
1148.437500	-86.810921
1171.875000	-90.848808
1195.312500	-94.815979
1218.750000	-92.273094
1242.187500	-85.937210
1265.625000	-87.554802
1289.062500	-92.257462
1312.500000	-93.785767
1335.937500	-90.700516
1359.375000	-90.337593
1382.812500	-95.556404
1406.250000	-94.009857
1429.687500	-91.794693
1453.125000	-89.232285
1476.562500	-89.699089
1500.000000	-88.351379
1523.437500	-89.032951
1546.875000	-89.179077
1570.312500	-91.088112
1593.750000	-91.417717
1617.187500	-90.065514
1640.625000	-87.453033
1664.062500	-87.164520
1687.500000	-87.146019
1710.937500	-86.439919
1734.375000	-84.157700
1757.812500	-83.998619
1781.250000	-87.832817
1804.687500	-87.705086
1828.125000	-85.401077
1851.562500	-83.325958
1875.000000	-81.275482
1898.437500	-79.277214
1921.875000	-77.478798
1945.312500	-75.380165
1968.750000	-73.497261
1992.187500	-71.730843
2015.625000	-69.812691
2039.062500	-67.514847
2062.500000	-66.286797
2085.937500	-66.911537
2109.375000	-68.820679
2132.812500	-71.045929
2156.250000	-73.885284
2179.687500	-77.489685
2203.125000	-80.138382
2226.562500	-80.493584
2250.000000	-81.078514
2273.437500	-83.077309
2296.875000	-84.237030
2320.312500	-84.049202
2343.750000	-84.148712
2367.187500	-85.255455
2390.625000	-85.541626
2414.062500	-84.594177
2437.500000	-84.338066
2460.937500	-84.995369
2484.375000	-87.017799
2507.812500	-90.792778
2531.250000	-96.078789
2554.687500	-101.169777
2578.125000	-99.958672
2601.562500	-95.365570
2625.000000	-91.241951
2648.437500	-87.836914
2671.875000	-86.410927
2695.312500	-85.724014
2718.750000	-84.901711
2742.187500	-84.701820
2765.625000	-85.049904
2789.062500	-85.127335
2812.500000	-86.156219
2835.937500	-87.285027
2859.375000	-88.706551
2882.812500	-89.715363
2906.250000	-89.538315
2929.687500	-89.462418
2953.125000	-89.607300
2976.562500	-89.533920
3000.000000	-89.385025
3023.437500	-88.984627
3046.875000	-87.505486
3070.312500	-87.034760
3093.750000	-87.627785
3117.187500	-89.059433
3140.625000	-89.304367
3164.062500	-88.377907
3187.500000	-90.680817
3210.937500	-92.286163
3234.375000	-85.835876
3257.812500	-82.442360
3281.250000	-80.441948
3304.687500	-79.702339
3328.125000	-81.059006
3351.562500	-83.843872
3375.000000	-88.094025
3398.437500	-92.171112
3421.875000	-92.917137
3445.312500	-92.578346
3468.750000	-97.015137
3492.187500	-99.032639
3515.625000	-96.043617
3539.062500	-94.079597
3562.500000	-94.442421
3585.937500	-95.803444
3609.375000	-97.299255
3632.812500	-97.002510
3656.250000	-96.803352
3679.687500	-97.117851
3703.125000	-98.781960
3726.562500	-102.627403
3750.000000	-101.342743
3773.437500	-98.155342
3796.875000	-94.564369
3820.312500	-92.087746
3843.750000	-89.981819
3867.187500	-88.736946
3890.625000	-87.700958
3914.062500	-87.611137
3937.500000	-87.926392
3960.937500	-87.301727
3984.375000	-85.537720
4007.812500	-83.864700
4031.250000	-82.435402
4054.687500	-80.721626
4078.125000	-79.603180
4101.562500	-79.398285
4125.000000	-79.142342
4148.437500	-78.491562
4171.875000	-77.286140
4195.312500	-76.652672
4218.750000	-76.918388
4242.187500	-77.182671
4265.625000	-78.070030
4289.062500	-78.993340
4312.500000	-79.279007
4335.937500	-79.546974
4359.375000	-80.213348
4382.812500	-81.414711
4406.250000	-83.519066
4429.687500	-87.386902
4453.125000	-92.925621
4476.562500	-92.637688
4500.000000	-87.620033
4523.437500	-84.411621
4546.875000	-81.821617
4570.312500	-80.171577
4593.750000	-79.687439
4617.187500	-79.223724
4640.625000	-78.667236
4664.062500	-77.923859
4687.500000	-77.259079
4710.937500	-76.571007
4734.375000	-76.074547
4757.812500	-76.325485
4781.250000	-76.881920
4804.687500	-77.900787
4828.125000	-78.862831
4851.562500	-79.778450
4875.000000	-80.981262
4898.437500	-82.160385
4921.875000	-84.162712
4945.312500	-87.777176
4968.750000	-91.308884
4992.187500	-87.352592
5015.625000	-83.463844
5039.062500	-81.801979
5062.500000	-81.880394
5085.937500	-82.632797
5109.375000	-83.377869
5132.812500	-83.895180
5156.250000	-84.260040
5179.687500	-84.731606
5203.125000	-85.822441
5226.562500	-87.082939
5250.000000	-87.666138
5273.437500	-87.655983
5296.875000	-86.219742
5320.312500	-84.383972
5343.750000	-83.019806
5367.187500	-82.214218
5390.625000	-81.694000
5414.062500	-81.870049
5437.500000	-82.789345
5460.937500	-84.081543
5484.375000	-84.502090
5507.812500	-83.240967
5531.250000	-81.480911
5554.687500	-80.117348
5578.125000	-79.772957
5601.562500	-79.170502
5625.000000	-78.040161
5648.437500	-77.550911
5671.875000	-76.731712
5695.312500	-75.060326
5718.750000	-72.981972
5742.187500	-71.194328
5765.625000	-69.647110
5789.062500	-68.449867
5812.500000	-68.548904
5835.937500	-68.946541
5859.375000	-70.134201
5882.812500	-71.161102
5906.250000	-71.491035
5929.687500	-71.051208
5953.125000	-70.750420
5976.562500	-70.327202
6000.000000	-69.698677
6023.437500	-68.703148
6046.875000	-67.722801
6070.312500	-67.105812
6093.750000	-65.971878
6117.187500	-64.643028
6140.625000	-63.946697
6164.062500	-63.385910
6187.500000	-62.825592
6210.937500	-62.623085
6234.375000	-63.066628
6257.812500	-63.526745
6281.250000	-63.939373
6304.687500	-64.903496
6328.125000	-65.972305
6351.562500	-67.093300
6375.000000	-68.674950
6398.437500	-70.410416
6421.875000	-71.837379
6445.312500	-71.624817
6468.750000	-70.592346
6492.187500	-69.001724
6515.625000	-67.639572
6539.062500	-66.734413
6562.500000	-66.191879
6585.937500	-66.033325
6609.375000	-66.610146
6632.812500	-67.660477
6656.250000	-69.176018
6679.687500	-70.049408
6703.125000	-69.505547
6726.562500	-69.239960
6750.000000	-69.246452
6773.437500	-69.473000
6796.875000	-70.248299
6820.312500	-70.825539
6843.750000	-71.673630
6867.187500	-71.848129
6890.625000	-72.290092
6914.062500	-72.569122
6937.500000	-72.536339
6960.937500	-73.074371
6984.375000	-73.999176
7007.812500	-74.847588
7031.250000	-75.520691
7054.687500	-76.196472
7078.125000	-77.056541
7101.562500	-77.460007
7125.000000	-78.086700
7148.437500	-78.860016
7171.875000	-78.956459
7195.312500	-78.473022
7218.750000	-78.290115
7242.187500	-78.180458
7265.625000	-78.027878
7289.062500	-77.089188
7312.500000	-76.248886
7335.937500	-75.509201
7359.375000	-74.673630
7382.812500	-73.900520
7406.250000	-72.991829
7429.687500	-72.225296
7453.125000	-72.073357
7476.562500	-72.407768
7500.000000	-72.986000
7523.437500	-73.880569
7546.875000	-74.883911
7570.312500	-75.759125
7593.750000	-77.103333
7617.187500	-77.795998
7640.625000	-78.394760
7664.062500	-78.991623
7687.500000	-79.719582
7710.937500	-80.691216
7734.375000	-82.515633
7757.812500	-84.192261
7781.250000	-85.783295
7804.687500	-88.217102
7828.125000	-90.077965
7851.562500	-91.857201
7875.000000	-94.404259
7898.437500	-97.286758
7921.875000	-100.869301
7945.312500	-102.113533
7968.750000	-101.858452
7992.187500	-100.260933
8015.625000	-98.043869
8039.062500	-95.052490
8062.500000	-92.886818
8085.937500	-91.114021
8109.375000	-90.499695
8132.812500	-90.070312
8156.250000	-90.744362
8179.687500	-91.380280
8203.125000	-92.844902
8226.562500	-93.710091
8250.000000	-94.253151
8273.437500	-94.697189
8296.875000	-95.499847
8320.312500	-97.411316
8343.750000	-99.422501
8367.187500	-102.142601
8390.625000	-101.828949
8414.062500	-99.306725
8437.500000	-96.931885
8460.937500	-95.008698
8484.375000	-93.627701
8507.812500	-92.389870
8531.250000	-91.093956
8554.687500	-90.994675
8578.125000	-90.437683
8601.562500	-89.976456
8625.000000	-89.844086
8648.437500	-89.390091
8671.875000	-87.996353
8695.312500	-87.233322
8718.750000	-86.479782
8742.187500	-86.179573
8765.625000	-85.685234
8789.062500	-85.027290
8812.500000	-85.330368
8835.937500	-84.993019
8859.375000	-85.208130
8882.812500	-85.928436
8906.250000	-86.172012
8929.687500	-86.404915
8953.125000	-86.847733
8976.562500	-87.300362
9000.000000	-87.460793
9023.437500	-87.839905
9046.875000	-87.793465
9070.312500	-88.095818
9093.750000	-88.859886
9117.187500	-89.253670
9140.625000	-89.795166
9164.062500	-90.513535
9187.500000	-91.192146
9210.937500	-92.084686
9234.375000	-93.069878
9257.812500	-93.634918
9281.250000	-94.262627
9304.687500	-95.140251
9328.125000	-96.021431
9351.562500	-96.602318
9375.000000	-97.355988
9398.437500	-97.388588
9421.875000	-96.934273
9445.312500	-96.082748
9468.750000	-95.176620
9492.187500	-94.279388
9515.625000	-93.215195
9539.062500	-92.146339
9562.500000	-91.518600
9585.937500	-90.997559
9609.375000	-90.216957
9632.812500	-90.090363
9656.250000	-89.882065
9679.687500	-89.764374
9703.125000	-90.042542
9726.562500	-90.099754
9750.000000	-89.709167
9773.437500	-89.214417
9796.875000	-88.759514
9820.312500	-88.465324
9843.750000	-88.514862
9867.187500	-88.834602
9890.625000	-89.137047
9914.062500	-89.412308
9937.500000	-89.332619
9960.937500	-89.792709
9984.375000	-90.576187
10007.812500	-91.457344
10031.250000	-92.697258
10054.687500	-93.905739
10078.125000	-95.669563
10101.562500	-97.929779
10125.000000	-98.790123
10148.437500	-99.006516
10171.875000	-99.982704
10195.312500	-99.690903
10218.750000	-98.935478
10242.187500	-97.977310
10265.625000	-96.889076
10289.062500	-96.428879
10312.500000	-95.666008
10335.937500	-95.401978
10359.375000	-94.994408
10382.812500	-94.557312
10406.250000	-93.930145
10429.687500	-92.905319
10453.125000	-91.933739
10476.562500	-91.083900
10500.000000	-90.142021
10523.437500	-89.381165
10546.875000	-88.377953
10570.312500	-87.569633
10593.750000	-86.802750
10617.187500	-85.892609
10640.625000	-85.262733
10664.062500	-85.030281
10687.500000	-84.433884
10710.937500	-83.736961
10734.375000	-82.987961
10757.812500	-83.082016
10781.250000	-83.044250
10804.687500	-83.101593
10828.125000	-83.638588
10851.562500	-83.326004
10875.000000	-83.636223
10898.437500	-83.757454
10921.875000	-83.810341
10945.312500	-84.001472
10968.750000	-84.350098
10992.187500	-84.233505
11015.625000	-83.593658
11039.062500	-83.448593
11062.500000	-83.673645
11085.937500	-83.635719
11109.375000	-83.825615
11132.812500	-83.627464
11156.250000	-83.800926
11179.687500	-84.040550
11203.125000	-84.156548
11226.562500	-83.844589
11250.000000	-84.304573
11273.437500	-84.687370
11296.875000	-84.753021
11320.312500	-85.118217
11343.750000	-85.259689
11367.187500	-85.419991
11390.625000	-85.772026
11414.062500	-86.370445
11437.500000	-87.056732
11460.937500	-87.510643
11484.375000	-88.254066
11507.812500	-88.918549
11531.250000	-89.669830
11554.687500	-90.052002
11578.125000	-90.648605
11601.562500	-90.472763
11625.000000	-89.489784
11648.437500	-88.497818
11671.875000	-87.317047
11695.312500	-86.312607
11718.750000	-85.691246
11742.187500	-85.292656
11765.625000	-84.835175
11789.062500	-84.748123
11812.500000	-84.560997
11835.937500	-84.812866
11859.375000	-84.953346
11882.812500	-85.696922
11906.250000	-86.127831
11929.687500	-86.707817
11953.125000	-87.072746
11976.562500	-86.761353
12000.000000	-85.623215
12023.437500	-84.048546
12046.875000	-82.368286
12070.312500	-81.409279
12093.750000	-80.614418
12117.187500	-79.372238
12140.625000	-78.939087
12164.062500	-78.078949
12187.500000	-77.568062
12210.937500	-77.254219
12234.375000	-76.863922
12257.812500	-77.023857
12281.250000	-77.006958
12304.687500	-77.111320
12328.125000	-77.259384
12351.562500	-77.738518
12375.000000	-78.559837
12398.437500	-79.233856
12421.875000	-79.582542
12445.312500	-80.219757
12468.750000	-81.101677
12492.187500	-81.858665
12515.625000	-82.860497
12539.062500	-84.074203
12562.500000	-84.462830
12585.937500	-84.490112
12609.375000	-84.542900
12632.812500	-84.587082
12656.250000	-84.309181
12679.687500	-83.558517
12703.125000	-82.689476
12726.562500	-82.293404
12750.000000	-81.754433
12773.437500	-81.318047
12796.875000	-81.102493
12820.312500	-80.861557
12843.750000	-80.782471
12867.187500	-80.761436
12890.625000	-80.620377
12914.062500	-80.715553
12937.500000	-81.082634
12960.937500	-81.149597
12984.375000	-80.967537
13007.812500	-80.890259
13031.250000	-81.002106
13054.687500	-80.733131
13078.125000	-80.568916
13101.562500	-80.416008
13125.000000	-80.206856
13148.437500	-79.728127
13171.875000	-79.584442
13195.312500	-79.302757
13218.750000	-79.204720
13242.187500	-79.191330
13265.625000	-79.226234
13289.062500	-79.461372
13312.500000	-79.797096
13335.937500	-80.031425
13359.375000	-80.327187
13382.812500	-80.682449
13406.250000	-80.982971
13429.687500	-81.550278
13453.125000	-81.910217
13476.562500	-82.739410
13500.000000	-83.201126
13523.437500	-84.231110
13546.875000	-85.513977
13570.312500	-86.314026
13593.750000	-86.998276
13617.187500	-87.821114
13640.625000	-88.803696
13664.062500	-88.797234
13687.500000	-88.955971
13710.937500	-88.777077
13734.375000	-88.155937
13757.812500	-87.862083
13781.250000	-87.873184
13804.687500	-87.993973
13828.125000	-87.686501
13851.562500	-87.714447
13875.000000	-88.045052
13898.437500	-88.675293
13921.875000	-89.536476
13945.312500	-90.002747
13968.750000	-90.464790
13992.187500	-91.050766
14015.625000	-90.944458
14039.062500	-90.775551
14062.500000	-90.826958
14085.937500	-90.503975
14109.375000	-89.911530
14132.812500	-89.174278
14156.250000	-88.216629
14179.687500	-87.245102
14203.125000	-86.618118
14226.562500	-85.880592
14250.000000	-85.083809
14273.437500	-85.084557
14296.875000	-85.274406
14320.312500	-84.940430
14343.750000	-84.753174
14367.187500	-84.586891
14390.625000	-84.376503
14414.062500	-84.782372
14437.500000	-85.361961
14460.937500	-85.671700
14484.375000	-86.402184
14507.812500	-87.658821
14531.250000	-88.593864
14554.687500	-88.958687
14578.125000	-89.736504
14601.562500	-90.535149
14625.000000	-90.734650
14648.437500	-90.996460
14671.875000	-90.870682
14695.312500	-90.276192
14718.750000	-89.705421
14742.187500	-89.450058
14765.625000	-89.443314
14789.062500	-89.805351
14812.500000	-90.104477
14835.937500	-90.423225
14859.375000	-90.452232
14882.812500	-91.047928
14906.250000	-92.073280
14929.687500	-93.062790
14953.125000	-93.920967
14976.562500	-94.619637
15000.000000	-94.756569
15023.437500	-94.874222
15046.875000	-94.464462
15070.312500	-94.169594
15093.750000	-93.495255
15117.187500	-92.529976
15140.625000	-92.242813
15164.062500	-92.368324
15187.500000	-91.722733
15210.937500	-91.774239
15234.375000	-91.518097
15257.812500	-91.669960
15281.250000	-91.866760
15304.687500	-91.671883
15328.125000	-91.697983
15351.562500	-91.578392
15375.000000	-91.364113
15398.437500	-91.223122
15421.875000	-91.289894
15445.312500	-91.370026
15468.750000	-91.365814
15492.187500	-91.367332
15515.625000	-91.374268
15539.062500	-91.182167
15562.500000	-91.258263
15585.937500	-91.300095
15609.375000	-91.321152
15632.812500	-91.568314
15656.250000	-91.944046
15679.687500	-92.251678
15703.125000	-92.376877
15726.562500	-92.497787
15750.000000	-92.357780
15773.437500	-92.857506
15796.875000	-93.125359
15820.312500	-93.112320
15843.750000	-92.563362
15867.187500	-92.905136
15890.625000	-93.122696
15914.062500	-93.168060
15937.500000	-92.825325
15960.937500	-92.600937
15984.375000	-92.563683
16007.812500	-92.476158
16031.250000	-92.184784
16054.687500	-92.523758
16078.125000	-92.783363
16101.562500	-92.803490
16125.000000	-92.899971
16148.437500	-93.275978
16171.875000	-93.840485
16195.312500	-94.617165
16218.750000	-95.575134
16242.187500	-96.396385
16265.625000	-97.433464
16289.062500	-98.741081
16312.500000	-100.356339
16335.937500	-101.323372
16359.375000	-103.305664
16382.812500	-104.805931
16406.250000	-105.154968
16429.687500	-102.947792
16453.125000	-102.307930
16476.562500	-101.529480
16500.000000	-100.285149
16523.437500	-98.837700
16546.875000	-97.772560
16570.312500	-97.530663
16593.750000	-97.213776
16617.187500	-96.267448
16640.625000	-95.396523
16664.062500	-95.894485
16687.500000	-95.924492
16710.937500	-95.773003
16734.375000	-95.590088
16757.812500	-95.675385
16781.250000	-95.719879
16804.687500	-95.710457
16828.125000	-95.451393
16851.562500	-95.433121
16875.000000	-95.648331
16898.437500	-95.879318
16921.875000	-96.107414
16945.312500	-95.509773
16968.750000	-95.185417
16992.187500	-95.299812
17015.625000	-95.109840
17039.062500	-94.691055
17062.500000	-94.859100
17085.937500	-94.707649
17109.375000	-94.398537
17132.812500	-94.404755
17156.250000	-94.282921
17179.687500	-94.058105
17203.125000	-94.033791
17226.562500	-93.970810
17250.000000	-94.162338
17273.437500	-94.332359
17296.875000	-94.162247
17320.312500	-94.185280
17343.750000	-94.294586
17367.187500	-94.213058
17390.625000	-94.025459
17414.062500	-94.023773
17437.500000	-93.661629
17460.937500	-93.867455
17484.375000	-93.694550
17507.812500	-93.818741
17531.250000	-93.771568
17554.687500	-93.349854
17578.125000	-93.363228
17601.562500	-93.513329
17625.000000	-93.562012
17648.437500	-93.555107
17671.875000	-93.969727
17695.312500	-94.160080
17718.750000	-94.275276
17742.187500	-94.448441
17765.625000	-94.857193
17789.062500	-94.861008
17812.500000	-95.441299
17835.937500	-95.738541
17859.375000	-95.791039
17882.812500	-96.201370
17906.250000	-96.288345
17929.687500	-95.991547
17953.125000	-96.305008
17976.562500	-92.800255
18000.000000	-93.734032
18023.437500	-97.330536
18046.875000	-97.568825
18070.312500	-99.271431
18093.750000	-99.578621
18117.187500	-99.162811
18140.625000	-98.340935
18164.062500	-99.776802
18187.500000	-100.224808
18210.937500	-99.922607
18234.375000	-97.564384
18257.812500	-99.242203
18281.250000	-100.021713
18304.687500	-100.317909
18328.125000	-99.107956
18351.562500	-99.023552
18375.000000	-99.668755
18398.437500	-99.770470
18421.875000	-98.835365
18445.312500	-98.119637
18468.750000	-99.347000
18492.187500	-99.478165
18515.625000	-99.389687
18539.062500	-98.519684
18562.500000	-99.537788
18585.937500	-99.577293
18609.375000	-99.597702
18632.812500	-98.664597
18656.250000	-99.230431
18679.687500	-99.438454
18703.125000	-99.496399
18726.562500	-98.191437
18750.000000	-98.389130
18773.437500	-99.631874
18796.875000	-99.715477
18820.312500	-98.880066
18843.750000	-98.082657
18867.187500	-99.793602
18890.625000	-100.023483
18914.062500	-99.154678
18937.500000	-96.916420
18960.937500	-99.300583
18984.375000	-99.862968
19007.812500	-99.999695
19031.250000	-97.953178
19054.687500	-99.047043
19078.125000	-99.914902
19101.562500	-99.823700
19125.000000	-98.292488
19148.437500	-98.343987
19171.875000	-99.457787
19195.312500	-99.278175
19218.750000	-98.731331
19242.187500	-97.601341
19265.625000	-99.405724
19289.062500	-99.189133
19312.500000	-98.984154
19335.937500	-97.335220
19359.375000	-99.517845
19382.812500	-99.231987
19406.250000	-98.665367
19429.687500	-96.968079
19453.125000	-98.208305
19476.562500	-99.507225
19500.000000	-98.893860
19523.437500	-98.034531
19546.875000	-97.979385
19570.312500	-99.619568
19593.750000	-99.538086
19617.187500	-99.261696
19640.625000	-98.579750
19664.062500	-99.807747
19687.500000	-99.166275
19710.937500	-98.840485
19734.375000	-97.281929
19757.812500	-98.775963
19781.250000	-99.451576
19804.687500	-99.029785
19828.125000	-97.527100
19851.562500	-98.223610
19875.000000	-99.293831
19898.437500	-99.222229
19921.875000	-99.459869
19945.312500	-99.285759
19968.750000	-99.860672
19992.187500	-99.581009
20015.625000	-99.237999
20039.062500	-98.447952
20062.500000	-99.484833
20085.937500	-99.452415
20109.375000	-99.556343
20132.812500	-99.384613
20156.250000	-99.980576
20179.687500	-99.963882
20203.125000	-99.907639
20226.562500	-97.820755
20250.000000	-98.536369
20273.437500	-100.515465
20296.875000	-100.564674
20320.312500	-99.778046
20343.750000	-99.531746
20367.187500	-100.472572
20390.625000	-100.526253
20414.062500	-100.742538
20437.500000	-100.492462
20460.937500	-101.194244
20484.375000	-101.268486
20507.812500	-101.502754
20531.250000	-100.797729
20554.687500	-101.440414
20578.125000	-101.692612
20601.562500	-101.835579
20625.000000	-101.211273
20648.437500	-101.436790
20671.875000	-102.324379
20695.312500	-102.359764
20718.750000	-101.688820
20742.187500	-101.242554
20765.625000	-102.663597
20789.062500	-102.939537
20812.500000	-102.856651
20835.937500	-102.657227
20859.375000	-103.049400
20882.812500	-102.975746
20906.250000	-103.365318
20929.687500	-102.710732
20953.125000	-103.186035
20976.562500	-103.576576
21000.000000	-103.703651
21023.437500	-103.076950
21046.875000	-103.015656
21070.312500	-103.834633
21093.750000	-103.665634
21117.187500	-103.592056
21140.625000	-103.399437
21164.062500	-104.265213
21187.500000	-104.594063
21210.937500	-104.408882
21234.375000	-103.977554
21257.812500	-104.436981
21281.250000	-104.336624
21304.687500	-104.421867
21328.125000	-103.915802
21351.562500	-104.209709
21375.000000	-104.777756
21398.437500	-104.846832
21421.875000	-104.418816
21445.312500	-104.418877
21468.750000	-104.899216
21492.187500	-104.954536
21515.625000	-104.741867
21539.062500	-104.704445
21562.500000	-105.347778
21585.937500	-104.801880
21609.375000	-104.752724
21632.812500	-104.902420
21656.250000	-105.161781
21679.687500	-105.383842
21703.125000	-105.169502
21726.562500	-105.114822
21750.000000	-105.186218
21773.437500	-105.479675
21796.875000	-105.621590
21820.312500	-105.703972
21843.750000	-105.325447
21867.187500	-105.351059
21890.625000	-105.342155
21914.062500	-105.514641
21937.500000	-105.334251
21960.937500	-105.445114
21984.375000	-105.391502
22007.812500	-105.599434
22031.250000	-105.384033
22054.687500	-105.752769
22078.125000	-105.675301
22101.562500	-105.744728
22125.000000	-105.980179
22148.437500	-105.778923
22171.875000	-105.669991
22195.312500	-105.747856
22218.750000	-105.690544
22242.187500	-105.405754
22265.625000	-105.672668
22289.062500	-105.675858
22312.500000	-106.112610
22335.937500	-106.038353
22359.375000	-106.155327
22382.812500	-105.945808
22406.250000	-106.406105
22429.687500	-106.352036
22453.125000	-106.131081
22476.562500	-106.030083
22500.000000	-106.121193
22523.437500	-105.879410
22546.875000	-106.046181
22570.312500	-105.493774
22593.750000	-104.600945
22617.187500	-105.875031
22640.625000	-106.229759
22664.062500	-106.524292
22687.500000	-106.618370
22710.937500	-106.449074
22734.375000	-106.384857
22757.812500	-106.638863
22781.250000	-106.644226
22804.687500	-106.254852
22828.125000	-105.722908
22851.562500	-106.153244
22875.000000	-106.381073
22898.437500	-106.287796
22921.875000	-106.059525
22945.312500	-106.173775
22968.750000	-106.548485
22992.187500	-106.566452
23015.625000	-106.233070
23039.062500	-106.487961
23062.500000	-106.692146
23085.937500	-106.735764
23109.375000	-106.527824
23132.812500	-106.380836
23156.250000	-106.600838
23179.687500	-106.303444
23203.125000	-106.402695
23226.562500	-106.464478
23250.000000	-106.507782
23273.437500	-106.506409
23296.875000	-106.767303
23320.312500	-106.758835
23343.750000	-106.487442
23367.187500	-106.589661
23390.625000	-106.654243
23414.062500	-106.937492
23437.500000	-106.445229
23460.937500	-106.497383
23484.375000	-106.502113
23507.812500	-106.871490
23531.250000	-106.846992
23554.687500	-106.791397
23578.125000	-106.807335
23601.562500	-106.974442
23625.000000	-107.048569
23648.437500	-106.639832
23671.875000	-106.495796
23695.312500	-106.724266
23718.750000	-106.791466
23742.187500	-106.641296
23765.625000	-106.379509
23789.062500	-106.382484
23812.500000	-106.660744
23835.937500	-106.622696
23859.375000	-106.613686
23882.812500	-106.606125
23906.250000	-106.648033
23929.687500	-106.606064
23953.125000	-106.539726
23976.562500	-106.345360
