Frequency (Hz)	Level (dB)
23.437500	-52.462364
46.875000	-44.676407
70.312500	-48.771576
93.750000	-56.866001
117.187500	-62.062000
140.625000	-75.762726
164.062500	-77.003242
187.500000	-73.711990
210.937500	-74.496819
234.375000	-79.605751
257.812500	-74.024460
281.250000	-70.147911
304.687500	-69.805580
328.125000	-71.032974
351.562500	-68.173286
375.000000	-74.805916
398.437500	-78.417084
421.875000	-77.758545
445.312500	-72.918526
468.750000	-75.779861
492.187500	-80.303680
515.625000	-79.445938
539.062500	-74.378166
562.500000	-73.291634
585.937500	-75.546768
609.375000	-76.526787
632.812500	-72.357315
656.250000	-70.498848
679.687500	-79.351067
703.125000	-86.684013
726.562500	-82.429039
750.000000	-77.282143
773.437500	-82.618401
796.875000	-84.182693
820.312500	-86.512032
843.750000	-85.910431
867.187500	-85.991791
890.625000	-85.715965
914.062500	-82.712585
937.500000	-74.773285
960.937500	-73.195396
984.375000	-77.332275
1007.812500	-82.285698
1031.250000	-79.681969
1054.687500	-76.463280
1078.125000	-76.769386
1101.562500	-76.057610
1125.000000	-75.106804
1148.437500	-75.214554
1171.875000	-78.022392
1195.312500	-81.918800
1218.750000	-83.551575
1242.187500	-81.049919
1265.625000	-81.910721
1289.062500	-85.257812
1312.500000	-87.238266
1335.937500	-87.469109
1359.375000	-87.619698
1382.812500	-88.087578
1406.250000	-86.730255
1429.687500	-85.972916
1453.125000	-85.269142
1476.562500	-85.560272
1500.000000	-84.367546
1523.437500	-81.915367
1546.875000	-77.261391
1570.312500	-73.882378
1593.750000	-74.784203
1617.187500	-81.346458
1640.625000	-89.139229
1664.062500	-86.806511
1687.500000	-83.531250
1710.937500	-81.352058
1734.375000	-79.721046
1757.812500	-78.815758
1781.250000	-78.571663
1804.687500	-78.059372
1828.125000	-77.800476
1851.562500	-77.900795
1875.000000	-77.784637
1898.437500	-77.145592
1921.875000	-76.292648
1945.312500	-74.511215
1968.750000	-72.890862
1992.187500	-71.713966
2015.625000	-70.877678
2039.062500	-69.083702
2062.500000	-66.028999
2085.937500	-62.714470
2109.375000	-62.016453
2132.812500	-63.748192
2156.250000	-67.580864
2179.687500	-73.540154
2203.125000	-79.559807
2226.562500	-82.710396
2250.000000	-83.447227
2273.437500	-84.037514
2296.875000	-84.877319
2320.312500	-86.061790
2343.750000	-86.405922
2367.187500	-88.514595
2390.625000	-89.361450
2414.062500	-88.037888
2437.500000	-87.658035
2460.937500	-88.610527
2484.375000	-88.867920
2507.812500	-88.738220
2531.250000	-89.264389
2554.687500	-90.050522
2578.125000	-90.470024
2601.562500	-91.294678
2625.000000	-93.511078
2648.437500	-95.216698
2671.875000	-97.629868
2695.312500	-100.378990
2718.750000	-99.580231
2742.187500	-96.086853
2765.625000	-95.479683
2789.062500	-95.763565
2812.500000	-98.449005
2835.937500	-103.236038
2859.375000	-105.147247
2882.812500	-99.954636
2906.250000	-96.501663
2929.687500	-95.645775
2953.125000	-93.967369
2976.562500	-91.883965
3000.000000	-90.714050
3023.437500	-90.151237
3046.875000	-88.480598
3070.312500	-87.585091
3093.750000	-86.716110
3117.187500	-85.674210
3140.625000	-85.100464
3164.062500	-84.537285
3187.500000	-85.190353
3210.937500	-87.322655
3234.375000	-88.657722
3257.812500	-85.939270
3281.250000	-82.858658
3304.687500	-80.159508
3328.125000	-78.959282
3351.562500	-79.727898
3375.000000	-82.401001
3398.437500	-85.758797
3421.875000	-88.799828
3445.312500	-91.276947
3468.750000	-95.457657
3492.187500	-97.318710
3515.625000	-94.099701
3539.062500	-89.368111
3562.500000	-86.447098
3585.937500	-84.117821
3609.375000	-82.236801
3632.812500	-80.374718
3656.250000	-79.189751
3679.687500	-78.835434
3703.125000	-79.725258
3726.562500	-80.514244
3750.000000	-80.728058
3773.437500	-81.480621
3796.875000	-82.063972
3820.312500	-82.234825
3843.750000	-82.165276
3867.187500	-81.975632
3890.625000	-81.182953
3914.062500	-80.729980
3937.500000	-80.221527
3960.937500	-78.964897
3984.375000	-77.553276
4007.812500	-76.860649
4031.250000	-76.766159
4054.687500	-77.000351
4078.125000	-77.627686
4101.562500	-78.781197
4125.000000	-79.046272
4148.437500	-78.942810
4171.875000	-78.950432
4195.312500	-78.669403
4218.750000	-78.409836
4242.187500	-78.455254
4265.625000	-79.673386
4289.062500	-81.682602
4312.500000	-83.812675
4335.937500	-86.045273
4359.375000	-88.577156
4382.812500	-91.098373
4406.250000	-92.910919
4429.687500	-93.968681
4453.125000	-93.638313
4476.562500	-92.319199
4500.000000	-90.839516
4523.437500	-89.646065
4546.875000	-88.397331
4570.312500	-88.510628
4593.750000	-89.312836
4617.187500	-88.630112
4640.625000	-87.970825
4664.062500	-87.831390
4687.500000	-88.331306
4710.937500	-88.916183
4734.375000	-89.549118
4757.812500	-90.880447
4781.250000	-92.531425
4804.687500	-92.833977
4828.125000	-90.703621
4851.562500	-87.755028
4875.000000	-85.097954
4898.437500	-82.245277
4921.875000	-79.646751
4945.312500	-78.381592
4968.750000	-78.222710
4992.187500	-78.311035
5015.625000	-78.369255
5039.062500	-79.175781
5062.500000	-80.636238
5085.937500	-82.123016
5109.375000	-83.835014
5132.812500	-84.384598
5156.250000	-83.771973
5179.687500	-83.280640
5203.125000	-82.837044
5226.562500	-81.285576
5250.000000	-79.338158
5273.437500	-78.074249
5296.875000	-76.936630
5320.312500	-76.406509
5343.750000	-76.001732
5367.187500	-75.786209
5390.625000	-75.245064
5414.062500	-74.650711
5437.500000	-74.292770
5460.937500	-74.795853
5484.375000	-76.562202
5507.812500	-78.767059
5531.250000	-79.863235
5554.687500	-79.458092
5578.125000	-79.079147
5601.562500	-77.968231
5625.000000	-76.207207
5648.437500	-75.381401
5671.875000	-75.177208
5695.312500	-75.693665
5718.750000	-77.117630
5742.187500	-77.661476
5765.625000	-76.329140
5789.062500	-74.490105
5812.500000	-73.810516
5835.937500	-73.771370
5859.375000	-73.865326
5882.812500	-72.886543
5906.250000	-70.877708
5929.687500	-68.548538
5953.125000	-66.898926
5976.562500	-66.009636
6000.000000	-66.038948
6023.437500	-66.337250
6046.875000	-66.771042
6070.312500	-67.051117
6093.750000	-66.647202
6117.187500	-66.117317
6140.625000	-66.088486
6164.062500	-66.677650
6187.500000	-67.302727
6210.937500	-67.800926
6234.375000	-68.512108
6257.812500	-68.382973
6281.250000	-67.676460
6304.687500	-67.344467
6328.125000	-66.677437
6351.562500	-66.099625
6375.000000	-66.394455
6398.437500	-66.979813
6421.875000	-68.165840
6445.312500	-69.449158
6468.750000	-71.597710
6492.187500	-73.932297
6515.625000	-75.393509
6539.062500	-75.603806
6562.500000	-74.520187
6585.937500	-73.745010
6609.375000	-73.555260
6632.812500	-74.102974
6656.250000	-75.001305
6679.687500	-75.347870
6703.125000	-74.504814
6726.562500	-74.146980
6750.000000	-74.357620
6773.437500	-74.602798
6796.875000	-75.104042
6820.312500	-75.240242
6843.750000	-75.714188
6867.187500	-75.663971
6890.625000	-76.136154
6914.062500	-76.607750
6937.500000	-76.750191
6960.937500	-77.221786
6984.375000	-77.446228
7007.812500	-77.416229
7031.250000	-76.902107
7054.687500	-76.585510
7078.125000	-76.192619
7101.562500	-75.764664
7125.000000	-75.856110
7148.437500	-76.299164
7171.875000	-76.336342
7195.312500	-75.843941
7218.750000	-75.654488
7242.187500	-75.769241
7265.625000	-75.688599
7289.062500	-75.390587
7312.500000	-75.577911
7335.937500	-76.152290
7359.375000	-76.990776
7382.812500	-77.993294
7406.250000	-78.690582
7429.687500	-79.464951
7453.125000	-80.378052
7476.562500	-81.731140
7500.000000	-83.092949
7523.437500	-84.353783
7546.875000	-85.590401
7570.312500	-86.336594
7593.750000	-87.206070
7617.187500	-86.860542
7640.625000	-86.468407
7664.062500	-85.595901
7687.500000	-84.864365
7710.937500	-84.186996
7734.375000	-83.942848
7757.812500	-83.665123
7781.250000	-83.757599
7804.687500	-84.641991
7828.125000	-85.175293
7851.562500	-86.150322
7875.000000	-87.658798
7898.437500	-89.057350
7921.875000	-91.101646
7945.312500	-93.215637
7968.750000	-96.146835
7992.187500	-98.821281
8015.625000	-98.908272
8039.062500	-97.118889
8062.500000	-95.667496
8085.937500	-94.631180
8109.375000	-94.989151
8132.812500	-95.530899
8156.250000	-96.466560
8179.687500	-96.869987
8203.125000	-96.086121
8226.562500	-93.529167
8250.000000	-91.507965
8273.437500	-89.836853
8296.875000	-88.935150
8320.312500	-88.564285
8343.750000	-87.724701
8367.187500	-86.644127
8390.625000	-85.435455
8414.062500	-84.220802
8437.500000	-83.863182
8460.937500	-83.495949
8484.375000	-83.636795
8507.812500	-83.960281
8531.250000	-83.889885
8554.687500	-84.617027
8578.125000	-84.595795
8601.562500	-84.723412
8625.000000	-85.338722
8648.437500	-86.025452
8671.875000	-86.206032
8695.312500	-86.776718
8718.750000	-87.487923
8742.187500	-88.405220
8765.625000	-88.826134
8789.062500	-88.891685
8812.500000	-89.891563
8835.937500	-90.180260
8859.375000	-90.733536
8882.812500	-92.485924
8906.250000	-94.643532
8929.687500	-97.074280
8953.125000	-100.332870
8976.562500	-106.010048
9000.000000	-110.261482
9023.437500	-108.395218
9046.875000	-104.138763
9070.312500	-101.444023
9093.750000	-99.629524
9117.187500	-97.619850
9140.625000	-95.893173
9164.062500	-95.132492
9187.500000	-94.087624
9210.937500	-93.752121
9234.375000	-93.563911
9257.812500	-93.099289
9281.250000	-92.665306
9304.687500	-92.547844
9328.125000	-92.150467
9351.562500	-91.144592
9375.000000	-89.926521
9398.437500	-88.593666
9421.875000	-87.616920
9445.312500	-86.769470
9468.750000	-85.807899
9492.187500	-85.258636
9515.625000	-84.599785
9539.062500	-84.060783
9562.500000	-84.018684
9585.937500	-84.393471
9609.375000	-84.378494
9632.812500	-84.876015
9656.250000	-85.181175
9679.687500	-85.796745
9703.125000	-86.421638
9726.562500	-86.718719
9750.000000	-86.413162
9773.437500	-86.102882
9796.875000	-85.783569
9820.312500	-85.681725
9843.750000	-85.801491
9867.187500	-86.347168
9890.625000	-86.799751
9914.062500	-87.020805
9937.500000	-86.781876
9960.937500	-87.004280
9984.375000	-87.373932
10007.812500	-87.536369
10031.250000	-88.263680
10054.687500	-88.780220
10078.125000	-89.866699
10101.562500	-91.330894
10125.000000	-92.089684
10148.437500	-93.091164
10171.875000	-94.232956
10195.312500	-94.767471
10218.750000	-94.418671
10242.187500	-93.273491
10265.625000	-91.946136
10289.062500	-91.221848
10312.500000	-90.663132
10335.937500	-91.245628
10359.375000	-92.195206
10382.812500	-93.323578
10406.250000	-94.354698
10429.687500	-95.506287
10453.125000	-96.495125
10476.562500	-97.356102
10500.000000	-98.166580
10523.437500	-99.105904
10546.875000	-99.316154
10570.312500	-99.657700
10593.750000	-99.987411
10617.187500	-99.854538
10640.625000	-99.244911
10664.062500	-98.769951
10687.500000	-97.593163
10710.937500	-95.911011
10734.375000	-93.849579
10757.812500	-92.412720
10781.250000	-90.565971
10804.687500	-89.028564
10828.125000	-87.913284
10851.562500	-86.466324
10875.000000	-85.984055
10898.437500	-85.311745
10921.875000	-84.881126
10945.312500	-84.770172
10968.750000	-85.092651
10992.187500	-84.943542
11015.625000	-84.175385
11039.062500	-83.704330
11062.500000	-83.902367
11085.937500	-83.883415
11109.375000	-83.951492
11132.812500	-83.310463
11156.250000	-83.188675
11179.687500	-83.075020
11203.125000	-83.014473
11226.562500	-82.291832
11250.000000	-82.253395
11273.437500	-81.966919
11296.875000	-81.527390
11320.312500	-81.319046
11343.750000	-80.791229
11367.187500	-80.214287
11390.625000	-79.645760
11414.062500	-79.484024
11437.500000	-79.468002
11460.937500	-79.057930
11484.375000	-78.804802
11507.812500	-78.612915
11531.250000	-78.346184
11554.687500	-77.952904
11578.125000	-78.317848
11601.562500	-78.367302
11625.000000	-78.205551
11648.437500	-78.420029
11671.875000	-78.619308
11695.312500	-78.809654
11718.750000	-79.186218
11742.187500	-79.651695
11765.625000	-79.773361
11789.062500	-80.078186
11812.500000	-79.891594
11835.937500	-79.650558
11859.375000	-79.391243
11882.812500	-79.279404
11906.250000	-78.773445
11929.687500	-78.467125
11953.125000	-78.291618
11976.562500	-78.063576
12000.000000	-77.578033
12023.437500	-76.909142
12046.875000	-76.043831
12070.312500	-75.635841
12093.750000	-75.356483
12117.187500	-74.502266
12140.625000	-74.470207
12164.062500	-73.959915
12187.500000	-73.756088
12210.937500	-73.535172
12234.375000	-73.361832
12257.812500	-73.308426
12281.250000	-73.215714
12304.687500	-72.985199
12328.125000	-72.786606
12351.562500	-72.585800
12375.000000	-72.639488
12398.437500	-72.470718
12421.875000	-72.056221
12445.312500	-71.983635
12468.750000	-72.110847
12492.187500	-72.226234
12515.625000	-72.777679
12539.062500	-73.640381
12562.500000	-73.896057
12585.937500	-73.989136
12609.375000	-74.143707
12632.812500	-74.201141
12656.250000	-74.147667
12679.687500	-73.722633
12703.125000	-73.460396
12726.562500	-73.573517
12750.000000	-73.334740
12773.437500	-73.087959
12796.875000	-72.821655
12820.312500	-72.372116
12843.750000	-72.053879
12867.187500	-71.519417
12890.625000	-71.168640
12914.062500	-71.129883
12937.500000	-71.046501
12960.937500	-70.860443
12984.375000	-70.698853
13007.812500	-70.823006
13031.250000	-71.000038
13054.687500	-70.728401
13078.125000	-70.840492
13101.562500	-71.093452
13125.000000	-71.189140
13148.437500	-71.325775
13171.875000	-71.512398
13195.312500	-71.446785
13218.750000	-71.564194
13242.187500	-71.877243
13265.625000	-72.059616
13289.062500	-72.391495
13312.500000	-72.854584
13335.937500	-73.296516
13359.375000	-73.726974
13382.812500	-74.113754
13406.250000	-74.322929
13429.687500	-74.708916
13453.125000	-75.096069
13476.562500	-75.674301
13500.000000	-75.853317
13523.437500	-76.295387
13546.875000	-76.870453
13570.312500	-76.919510
13593.750000	-76.774094
13617.187500	-76.758797
13640.625000	-77.238274
13664.062500	-77.097023
13687.500000	-77.354324
13710.937500	-77.392456
13734.375000	-77.191254
13757.812500	-77.479561
13781.250000	-77.817062
13804.687500	-78.472298
13828.125000	-78.909294
13851.562500	-79.651367
13875.000000	-80.489853
13898.437500	-81.250816
13921.875000	-82.234818
13945.312500	-82.652679
13968.750000	-83.382767
13992.187500	-84.000443
14015.625000	-84.399208
14039.062500	-84.940910
14062.500000	-85.986092
14085.937500	-87.004784
14109.375000	-88.228821
14132.812500	-89.276566
14156.250000	-90.246109
14179.687500	-91.361115
14203.125000	-91.850937
14226.562500	-91.304344
14250.000000	-90.473923
14273.437500	-90.167679
14296.875000	-90.029648
14320.312500	-89.468750
14343.750000	-89.260147
14367.187500	-89.007187
14390.625000	-88.659302
14414.062500	-88.871170
14437.500000	-89.098625
14460.937500	-88.837166
14484.375000	-89.034416
14507.812500	-89.553543
14531.250000	-89.920799
14554.687500	-89.703430
14578.125000	-90.229256
14601.562500	-90.971977
14625.000000	-91.303200
14648.437500	-91.807274
14671.875000	-92.297371
14695.312500	-92.261253
14718.750000	-92.000877
14742.187500	-92.162102
14765.625000	-92.109940
14789.062500	-92.292412
14812.500000	-92.576698
14835.937500	-92.475670
14859.375000	-92.361755
14882.812500	-92.456261
14906.250000	-92.745392
14929.687500	-92.919159
14953.125000	-92.717209
14976.562500	-92.637794
15000.000000	-92.497360
15023.437500	-92.698509
15046.875000	-92.722046
15070.312500	-92.734802
15093.750000	-92.488205
15117.187500	-92.039246
15140.625000	-92.449234
15164.062500	-92.961479
15187.500000	-92.761780
15210.937500	-93.023918
15234.375000	-93.082726
15257.812500	-93.520195
15281.250000	-94.145721
15304.687500	-94.244308
15328.125000	-94.302124
15351.562500	-94.287987
15375.000000	-94.216980
15398.437500	-94.236755
15421.875000	-94.116501
15445.312500	-93.917015
15468.750000	-94.014534
15492.187500	-94.064163
15515.625000	-94.037567
15539.062500	-93.951721
15562.500000	-94.179169
15585.937500	-94.390533
15609.375000	-94.436241
15632.812500	-94.753136
15656.250000	-95.426277
15679.687500	-95.967125
15703.125000	-96.351631
15726.562500	-96.465912
15750.000000	-96.321228
15773.437500	-96.870316
15796.875000	-97.365448
15820.312500	-97.561455
15843.750000	-96.998451
15867.187500	-97.377304
15890.625000	-97.773300
15914.062500	-97.947914
15937.500000	-97.751862
15960.937500	-98.294662
15984.375000	-99.177849
16007.812500	-99.754272
16031.250000	-99.827568
16054.687500	-100.407402
16078.125000	-101.397881
16101.562500	-101.857689
16125.000000	-101.515587
16148.437500	-101.665245
16171.875000	-103.724358
16195.312500	-104.561287
16218.750000	-105.060738
16242.187500	-103.549324
16265.625000	-105.522560
16289.062500	-106.276131
16312.500000	-106.370422
16335.937500	-105.225708
16359.375000	-105.856430
16382.812500	-106.435638
16406.250000	-106.210182
16429.687500	-103.930252
16453.125000	-103.740875
16476.562500	-106.068146
16500.000000	-105.830307
16523.437500	-104.741997
16546.875000	-103.610580
16570.312500	-105.638947
16593.750000	-105.219803
16617.187500	-104.176895
16640.625000	-102.052437
16664.062500	-104.109795
16687.500000	-104.656242
16710.937500	-104.792763
16734.375000	-102.805023
16757.812500	-102.975395
16781.250000	-104.189964
16804.687500	-103.963196
16828.125000	-103.129898
16851.562500	-102.981873
16875.000000	-104.072678
16898.437500	-104.488327
16921.875000	-103.719872
16945.312500	-102.281960
16968.750000	-103.934372
16992.187500	-103.872650
17015.625000	-103.557289
17039.062500	-102.566673
17062.500000	-103.539085
17085.937500	-103.354019
17109.375000	-103.433479
17132.812500	-102.494041
17156.250000	-102.784279
17179.687500	-103.792587
17203.125000	-103.603180
17226.562500	-102.212936
17250.000000	-101.612648
17273.437500	-103.970184
17296.875000	-104.080086
17320.312500	-103.304581
17343.750000	-102.043030
17367.187500	-104.100960
17390.625000	-104.204208
17414.062500	-103.477821
17437.500000	-100.288948
17460.937500	-102.204880
17484.375000	-103.834084
17507.812500	-103.400902
17531.250000	-101.443100
17554.687500	-101.721344
17578.125000	-103.403961
17601.562500	-103.193344
17625.000000	-102.651100
17648.437500	-102.006386
17671.875000	-103.209862
17695.312500	-102.897652
17718.750000	-102.077209
17742.187500	-100.254776
17765.625000	-102.011360
17789.062500	-102.109711
17812.500000	-102.141121
17835.937500	-100.956909
17859.375000	-101.806908
17882.812500	-102.306564
17906.250000	-101.834976
17929.687500	-99.792290
17953.125000	-98.835587
17976.562500	-93.046890
18000.000000	-94.016136
18023.437500	-99.238144
18046.875000	-98.554611
18070.312500	-100.951996
18093.750000	-101.476341
18117.187500	-100.948929
18140.625000	-99.520836
18164.062500	-101.055557
18187.500000	-100.711082
18210.937500	-100.880997
18234.375000	-98.224930
18257.812500	-99.551483
18281.250000	-100.881332
18304.687500	-100.829536
18328.125000	-99.462334
18351.562500	-99.187225
18375.000000	-100.629921
18398.437500	-100.566330
18421.875000	-100.026428
18445.312500	-98.757133
18468.750000	-99.933441
18492.187500	-100.448387
18515.625000	-100.362282
18539.062500	-98.542122
18562.500000	-99.674828
18585.937500	-100.159866
18609.375000	-100.500786
18632.812500	-98.866875
18656.250000	-99.721893
18679.687500	-100.388039
18703.125000	-100.612053
18726.562500	-98.815048
18750.000000	-98.349960
18773.437500	-100.717468
18796.875000	-100.459221
18820.312500	-99.642418
18843.750000	-98.020767
18867.187500	-99.960472
18890.625000	-100.247078
18914.062500	-100.005951
18937.500000	-97.570595
18960.937500	-99.167229
18984.375000	-100.544746
19007.812500	-100.384491
19031.250000	-97.838028
19054.687500	-98.497101
19078.125000	-100.889992
19101.562500	-100.772125
19125.000000	-99.313339
19148.437500	-98.801476
19171.875000	-100.569786
19195.312500	-100.295860
19218.750000	-99.151482
19242.187500	-97.219154
19265.625000	-99.516083
19289.062500	-100.591698
19312.500000	-99.465492
19335.937500	-95.934044
19359.375000	-98.082085
19382.812500	-100.602623
19406.250000	-100.303802
19429.687500	-98.301262
19453.125000	-98.438705
19476.562500	-100.212410
19500.000000	-100.207481
19523.437500	-98.973198
19546.875000	-98.057457
19570.312500	-100.078629
19593.750000	-100.115700
19617.187500	-99.439713
19640.625000	-97.598656
19664.062500	-99.293816
19687.500000	-99.624687
19710.937500	-99.408737
19734.375000	-97.726593
19757.812500	-98.765625
19781.250000	-99.913109
19804.687500	-99.920456
19828.125000	-97.766953
19851.562500	-97.403610
19875.000000	-99.711647
19898.437500	-99.832115
19921.875000	-99.887390
19945.312500	-98.973076
19968.750000	-99.614906
19992.187500	-99.689415
20015.625000	-99.742058
20039.062500	-98.247223
20062.500000	-99.428703
20085.937500	-100.072769
20109.375000	-100.176109
20132.812500	-99.167236
20156.250000	-99.330864
20179.687500	-99.992447
20203.125000	-100.416771
20226.562500	-99.388870
20250.000000	-99.388504
20273.437500	-100.964363
20296.875000	-100.952820
20320.312500	-100.864754
20343.750000	-100.423256
20367.187500	-101.214218
20390.625000	-101.086281
20414.062500	-101.315125
20437.500000	-100.698036
20460.937500	-101.694595
20484.375000	-102.143494
20507.812500	-102.083038
20531.250000	-100.778336
20554.687500	-101.191727
20578.125000	-102.380157
20601.562500	-102.446945
20625.000000	-102.081253
20648.437500	-102.393776
20671.875000	-103.363411
20695.312500	-103.393456
20718.750000	-103.430084
20742.187500	-102.916245
20765.625000	-103.745895
20789.062500	-103.682281
20812.500000	-103.979843
20835.937500	-103.379501
20859.375000	-103.940109
20882.812500	-104.235558
20906.250000	-104.385933
20929.687500	-103.722778
20953.125000	-104.156219
20976.562500	-104.874886
21000.000000	-104.721420
21023.437500	-104.501900
21046.875000	-104.176765
21070.312500	-104.898445
21093.750000	-105.047142
21117.187500	-105.154968
21140.625000	-104.824844
21164.062500	-105.414238
21187.500000	-105.654396
21210.937500	-105.897125
21234.375000	-105.434959
21257.812500	-105.617638
21281.250000	-105.735924
21304.687500	-105.732147
21328.125000	-105.193047
21351.562500	-105.224472
21375.000000	-105.956772
21398.437500	-106.199707
21421.875000	-106.371613
21445.312500	-106.106644
21468.750000	-106.865997
21492.187500	-106.708214
21515.625000	-106.508835
21539.062500	-105.960800
21562.500000	-106.416389
21585.937500	-106.593971
21609.375000	-106.656677
21632.812500	-106.643341
21656.250000	-106.873512
21679.687500	-106.943130
21703.125000	-107.242851
21726.562500	-107.160118
21750.000000	-106.939148
21773.437500	-107.484642
21796.875000	-107.222481
21820.312500	-107.272552
21843.750000	-107.083199
21867.187500	-107.685135
21890.625000	-107.747879
21914.062500	-107.938354
21937.500000	-107.883942
21960.937500	-108.061264
21984.375000	-107.996498
22007.812500	-107.859917
22031.250000	-107.731476
22054.687500	-107.804611
22078.125000	-108.485329
22101.562500	-108.245758
22125.000000	-108.205910
22148.437500	-108.211555
22171.875000	-108.527916
22195.312500	-108.635445
22218.750000	-108.278748
22242.187500	-107.837860
22265.625000	-108.523033
22289.062500	-108.765892
22312.500000	-108.736961
22335.937500	-108.288803
22359.375000	-108.895370
22382.812500	-108.814278
22406.250000	-108.826660
22429.687500	-108.684082
22453.125000	-108.890015
22476.562500	-108.980469
22500.000000	-108.863556
22523.437500	-108.656700
22546.875000	-108.404907
22570.312500	-107.776024
22593.750000	-106.130486
22617.187500	-108.195427
22640.625000	-108.726845
22664.062500	-109.270226
22687.500000	-109.206039
22710.937500	-109.413933
22734.375000	-109.034737
22757.812500	-109.269974
22781.250000	-109.540131
22804.687500	-109.625084
22828.125000	-109.470627
22851.562500	-109.502831
22875.000000	-109.865768
22898.437500	-109.907516
22921.875000	-110.037689
22945.312500	-109.887756
22968.750000	-110.016808
22992.187500	-109.974915
23015.625000	-109.891968
23039.062500	-109.759743
23062.500000	-110.133362
23085.937500	-110.319656
23109.375000	-110.454704
23132.812500	-110.190155
23156.250000	-110.346336
23179.687500	-110.555923
23203.125000	-110.634483
23226.562500	-110.576561
23250.000000	-110.602959
23273.437500	-110.891006
23296.875000	-110.836594
23320.312500	-110.470497
23343.750000	-110.210258
23367.187500	-110.784920
23390.625000	-110.780075
23414.062500	-110.793762
23437.500000	-110.584663
23460.937500	-110.950310
23484.375000	-110.904152
23507.812500	-110.980980
23531.250000	-110.693619
23554.687500	-110.618347
23578.125000	-110.958740
23601.562500	-111.139069
23625.000000	-110.638161
23648.437500	-110.247704
23671.875000	-111.016701
23695.312500	-111.060051
23718.750000	-110.696846
23742.187500	-110.824287
23765.625000	-111.046112
23789.062500	-110.990143
23812.500000	-110.965034
23835.937500	-110.964226
23859.375000	-110.948013
23882.812500	-111.199593
23906.250000	-111.024002
23929.687500	-111.104874
23953.125000	-110.810577
23976.562500	-110.978775
