Frequency (Hz)	Level (dB)
23.437500	-52.128166
46.875000	-44.321869
70.312500	-48.647636
93.750000	-65.045746
117.187500	-67.931046
140.625000	-76.565392
164.062500	-78.177612
187.500000	-77.719543
210.937500	-77.426781
234.375000	-83.206337
257.812500	-81.915459
281.250000	-75.915291
304.687500	-72.528038
328.125000	-73.069534
351.562500	-68.747383
375.000000	-74.824684
398.437500	-77.974098
421.875000	-78.913094
445.312500	-73.011703
468.750000	-76.531120
492.187500	-84.015556
515.625000	-84.414543
539.062500	-79.064163
562.500000	-78.991570
585.937500	-84.414337
609.375000	-84.576431
632.812500	-73.103920
656.250000	-70.479836
679.687500	-80.152496
703.125000	-89.695747
726.562500	-81.550453
750.000000	-75.757828
773.437500	-81.467110
796.875000	-84.778801
820.312500	-87.690208
843.750000	-84.180031
867.187500	-86.718178
890.625000	-93.187599
914.062500	-87.662605
937.500000	-74.317001
960.937500	-74.016624
984.375000	-85.729156
1007.812500	-89.219093
1031.250000	-93.150604
1054.687500	-91.017891
1078.125000	-94.855705
1101.562500	-95.198219
1125.000000	-92.214371
1148.437500	-86.869049
1171.875000	-91.200470
1195.312500	-96.296722
1218.750000	-93.249237
1242.187500	-84.446472
1265.625000	-86.031609
1289.062500	-92.207886
1312.500000	-93.106819
1335.937500	-89.201668
1359.375000	-88.159927
1382.812500	-94.086472
1406.250000	-95.505486
1429.687500	-96.630928
1453.125000	-94.192139
1476.562500	-96.022453
1500.000000	-92.412415
1523.437500	-93.944466
1546.875000	-91.309425
1570.312500	-94.923561
1593.750000	-97.011459
1617.187500	-96.766342
1640.625000	-91.801674
1664.062500	-92.542099
1687.500000	-94.341431
1710.937500	-93.919540
1734.375000	-89.374268
1757.812500	-87.884422
1781.250000	-93.659615
1804.687500	-94.836563
1828.125000	-96.316498
1851.562500	-94.887413
1875.000000	-94.772545
1898.437500	-94.181236
1921.875000	-94.587204
1945.312500	-93.684875
1968.750000	-93.597038
1992.187500	-92.663857
2015.625000	-91.628128
2039.062500	-87.757217
2062.500000	-87.134850
2085.937500	-89.264236
2109.375000	-90.978493
2132.812500	-92.792664
2156.250000	-94.398895
2179.687500	-91.894531
2203.125000	-85.350922
2226.562500	-81.365326
2250.000000	-80.322212
2273.437500	-80.875084
2296.875000	-82.923439
2320.312500	-85.563667
2343.750000	-87.735901
2367.187500	-90.971985
2390.625000	-93.683464
2414.062500	-94.895622
2437.500000	-94.275429
2460.937500	-94.135300
2484.375000	-95.347664
2507.812500	-95.438110
2531.250000	-95.803955
2554.687500	-95.560455
2578.125000	-96.464798
2601.562500	-96.552872
2625.000000	-96.736938
2648.437500	-96.177292
2671.875000	-96.277054
2695.312500	-96.428085
2718.750000	-97.964058
2742.187500	-100.390533
2765.625000	-101.222557
2789.062500	-99.358192
2812.500000	-98.308311
2835.937500	-97.227959
2859.375000	-97.400955
2882.812500	-97.278648
2906.250000	-96.375694
2929.687500	-98.581818
2953.125000	-99.049683
2976.562500	-100.489403
3000.000000	-101.388145
3023.437500	-102.754921
3046.875000	-98.404831
3070.312500	-95.587479
3093.750000	-94.177254
3117.187500	-94.097397
3140.625000	-93.043922
3164.062500	-91.332756
3187.500000	-90.175720
3210.937500	-89.687119
3234.375000	-89.994766
3257.812500	-91.282455
3281.250000	-91.327019
3304.687500	-89.256630
3328.125000	-87.690559
3351.562500	-86.488823
3375.000000	-86.298759
3398.437500	-86.676743
3421.875000	-87.428253
3445.312500	-86.717438
3468.750000	-86.530823
3492.187500	-88.160416
3515.625000	-90.591591
3539.062500	-93.245697
3562.500000	-95.630432
3585.937500	-98.609390
3609.375000	-97.967125
3632.812500	-96.073883
3656.250000	-95.047066
3679.687500	-94.198006
3703.125000	-94.075500
3726.562500	-93.912537
3750.000000	-93.759972
3773.437500	-94.488297
3796.875000	-94.376648
3820.312500	-94.434326
3843.750000	-94.337418
3867.187500	-95.076378
3890.625000	-95.748489
3914.062500	-96.429863
3937.500000	-96.235085
3960.937500	-95.388214
3984.375000	-94.187088
4007.812500	-93.425209
4031.250000	-92.662819
4054.687500	-91.438171
4078.125000	-91.092155
4101.562500	-91.817314
4125.000000	-92.841667
4148.437500	-93.838249
4171.875000	-95.120491
4195.312500	-97.122047
4218.750000	-98.829033
4242.187500	-96.094345
4265.625000	-93.230301
4289.062500	-91.237137
4312.500000	-90.380936
4335.937500	-90.718857
4359.375000	-92.448845
4382.812500	-94.961456
4406.250000	-97.834099
4429.687500	-100.468468
4453.125000	-99.959564
4476.562500	-98.175980
4500.000000	-96.311996
4523.437500	-95.306908
4546.875000	-94.580276
4570.312500	-94.613258
4593.750000	-95.459404
4617.187500	-96.349884
4640.625000	-96.953529
4664.062500	-97.099037
4687.500000	-96.506744
4710.937500	-95.512756
4734.375000	-94.039253
4757.812500	-92.932121
4781.250000	-92.150513
4804.687500	-91.731804
4828.125000	-91.584259
4851.562500	-91.260155
4875.000000	-91.157852
4898.437500	-90.808426
4921.875000	-90.403030
4945.312500	-90.302048
4968.750000	-90.457008
4992.187500	-89.784370
5015.625000	-88.912827
5039.062500	-88.596916
5062.500000	-88.585358
5085.937500	-88.471771
5109.375000	-87.751228
5132.812500	-86.775093
5156.250000	-85.784248
5179.687500	-85.072510
5203.125000	-84.816872
5226.562500	-84.020851
5250.000000	-83.083267
5273.437500	-82.846817
5296.875000	-82.387024
5320.312500	-81.510078
5343.750000	-80.473213
5367.187500	-79.671059
5390.625000	-78.774033
5414.062500	-78.205322
5437.500000	-77.558945
5460.937500	-77.360687
5484.375000	-78.064415
5507.812500	-79.080452
5531.250000	-79.652122
5554.687500	-79.916885
5578.125000	-80.780258
5601.562500	-81.246803
5625.000000	-80.915749
5648.437500	-81.017738
5671.875000	-80.796631
5695.312500	-80.375900
5718.750000	-79.641327
5742.187500	-78.913193
5765.625000	-77.868645
5789.062500	-76.805817
5812.500000	-76.870651
5835.937500	-77.063110
5859.375000	-77.739471
5882.812500	-78.237167
5906.250000	-78.845222
5929.687500	-79.003571
5953.125000	-79.798378
5976.562500	-81.006592
6000.000000	-82.376633
6023.437500	-84.850571
6046.875000	-88.218224
6070.312500	-92.717438
6093.750000	-96.154640
6117.187500	-96.423332
6140.625000	-96.420624
6164.062500	-95.767387
6187.500000	-92.752083
6210.937500	-88.675644
6234.375000	-85.098564
6257.812500	-81.863457
6281.250000	-79.682724
6304.687500	-78.110519
6328.125000	-77.427132
6351.562500	-76.887779
6375.000000	-77.118851
6398.437500	-77.845779
6421.875000	-78.746979
6445.312500	-80.009636
6468.750000	-82.374855
6492.187500	-83.443207
6515.625000	-81.017044
6539.062500	-78.069962
6562.500000	-75.789841
6585.937500	-73.954819
6609.375000	-73.028984
6632.812500	-72.602875
6656.250000	-73.064079
6679.687500	-73.508324
6703.125000	-72.625771
6726.562500	-71.931137
6750.000000	-71.505508
6773.437500	-71.598312
6796.875000	-72.918266
6820.312500	-74.705238
6843.750000	-77.116226
6867.187500	-78.767105
6890.625000	-79.525726
6914.062500	-79.227295
6937.500000	-78.345261
6960.937500	-77.855225
6984.375000	-77.755707
7007.812500	-77.663658
7031.250000	-77.687050
7054.687500	-77.243156
7078.125000	-76.644302
7101.562500	-75.614281
7125.000000	-75.355385
7148.437500	-75.579269
7171.875000	-75.336952
7195.312500	-74.865425
7218.750000	-75.647217
7242.187500	-76.747032
7265.625000	-78.275932
7289.062500	-79.198204
7312.500000	-80.551826
7335.937500	-82.221489
7359.375000	-83.706734
7382.812500	-85.071121
7406.250000	-86.077362
7429.687500	-86.527725
7453.125000	-86.853325
7476.562500	-86.900978
7500.000000	-86.737846
7523.437500	-86.703316
7546.875000	-86.640076
7570.312500	-86.456497
7593.750000	-86.792931
7617.187500	-86.652679
7640.625000	-86.372299
7664.062500	-86.473282
7687.500000	-86.784477
7710.937500	-87.036552
7734.375000	-88.030693
7757.812500	-88.395798
7781.250000	-88.826614
7804.687500	-89.578773
7828.125000	-89.554245
7851.562500	-89.834099
7875.000000	-90.222343
7898.437500	-90.510345
7921.875000	-90.548073
7945.312500	-90.358727
7968.750000	-90.771614
7992.187500	-91.329041
8015.625000	-91.921173
8039.062500	-92.441132
8062.500000	-92.757973
8085.937500	-93.295792
8109.375000	-94.421989
8132.812500	-95.381050
8156.250000	-97.020676
8179.687500	-98.640968
8203.125000	-101.344238
8226.562500	-104.161919
8250.000000	-105.391434
8273.437500	-103.780357
8296.875000	-100.850639
8320.312500	-98.752922
8343.750000	-96.499420
8367.187500	-95.278099
8390.625000	-94.088425
8414.062500	-93.104645
8437.500000	-92.851448
8460.937500	-92.441544
8484.375000	-92.424599
8507.812500	-92.425476
8531.250000	-92.011261
8554.687500	-92.373116
8578.125000	-91.962746
8601.562500	-91.329765
8625.000000	-91.189911
8648.437500	-90.900436
8671.875000	-90.299782
8695.312500	-90.535484
8718.750000	-90.854485
8742.187500	-91.687790
8765.625000	-92.525505
8789.062500	-93.003395
8812.500000	-94.180756
8835.937500	-94.214333
8859.375000	-94.425568
8882.812500	-94.593719
8906.250000	-94.149124
8929.687500	-93.992104
8953.125000	-94.117096
8976.562500	-94.360077
9000.000000	-94.388260
9023.437500	-94.682793
9046.875000	-94.536339
9070.312500	-94.888359
9093.750000	-95.581833
9117.187500	-95.921768
9140.625000	-96.024132
9164.062500	-95.999199
9187.500000	-95.771858
9210.937500	-95.592331
9234.375000	-95.304466
9257.812500	-94.846733
9281.250000	-94.265167
9304.687500	-94.199059
9328.125000	-94.303368
9351.562500	-94.451698
9375.000000	-95.304970
9398.437500	-95.947838
9421.875000	-96.759407
9445.312500	-97.909836
9468.750000	-99.315170
9492.187500	-101.128143
9515.625000	-102.946693
9539.062500	-104.633965
9562.500000	-105.851662
9585.937500	-107.281212
9609.375000	-106.717766
9632.812500	-104.965378
9656.250000	-103.526772
9679.687500	-103.359077
9703.125000	-102.988647
9726.562500	-102.452400
9750.000000	-101.882828
9773.437500	-101.480370
9796.875000	-100.866470
9820.312500	-100.191589
9843.750000	-99.786781
9867.187500	-99.789368
9890.625000	-99.959824
9914.062500	-100.393913
9937.500000	-99.779152
9960.937500	-99.668106
9984.375000	-100.147079
10007.812500	-100.126740
10031.250000	-100.084663
10054.687500	-99.832382
10078.125000	-100.218323
10101.562500	-100.439018
10125.000000	-99.645981
10148.437500	-98.624397
10171.875000	-98.270935
10195.312500	-97.009766
10218.750000	-95.988235
10242.187500	-95.029434
10265.625000	-93.573418
10289.062500	-92.496407
10312.500000	-91.095985
10335.937500	-90.393394
10359.375000	-89.753990
10382.812500	-89.217865
10406.250000	-88.760147
10429.687500	-87.921791
10453.125000	-87.430008
10476.562500	-87.151100
10500.000000	-86.838448
10523.437500	-86.648643
10546.875000	-86.317268
10570.312500	-85.939629
10593.750000	-85.520126
10617.187500	-84.968719
10640.625000	-84.725487
10664.062500	-85.125740
10687.500000	-85.137596
10710.937500	-84.604744
10734.375000	-84.087891
10757.812500	-84.229675
10781.250000	-83.875763
10804.687500	-83.623428
10828.125000	-83.568024
10851.562500	-82.822998
10875.000000	-82.661438
10898.437500	-82.412727
10921.875000	-82.522194
10945.312500	-82.885994
10968.750000	-83.558350
10992.187500	-83.886467
11015.625000	-83.812134
11039.062500	-84.372932
11062.500000	-85.012238
11085.937500	-85.610352
11109.375000	-86.395073
11132.812500	-86.845848
11156.250000	-87.274956
11179.687500	-87.880127
11203.125000	-87.949341
11226.562500	-87.256973
11250.000000	-87.193550
11273.437500	-87.065216
11296.875000	-86.501144
11320.312500	-86.215729
11343.750000	-85.779312
11367.187500	-85.491814
11390.625000	-85.281876
11414.062500	-85.221664
11437.500000	-85.318413
11460.937500	-85.359604
11484.375000	-85.499481
11507.812500	-85.460068
11531.250000	-85.433159
11554.687500	-85.216843
11578.125000	-85.429810
11601.562500	-85.274017
11625.000000	-84.959877
11648.437500	-84.699684
11671.875000	-84.353493
11695.312500	-84.050407
11718.750000	-84.032181
11742.187500	-84.117035
11765.625000	-83.888565
11789.062500	-83.896690
11812.500000	-83.574196
11835.937500	-83.413864
11859.375000	-82.959030
11882.812500	-82.986160
11906.250000	-82.533287
11929.687500	-82.339775
11953.125000	-82.517029
11976.562500	-82.647301
12000.000000	-82.531570
12023.437500	-82.432442
12046.875000	-81.947990
12070.312500	-82.120483
12093.750000	-82.257362
12117.187500	-82.013725
12140.625000	-82.331337
12164.062500	-82.221001
12187.500000	-82.236275
12210.937500	-82.454643
12234.375000	-82.316269
12257.812500	-82.722664
12281.250000	-82.705597
12304.687500	-82.871277
12328.125000	-82.720406
12351.562500	-82.871346
12375.000000	-83.064781
12398.437500	-82.971268
12421.875000	-82.474915
12445.312500	-82.258041
12468.750000	-82.205238
12492.187500	-82.015320
12515.625000	-82.430199
12539.062500	-83.365219
12562.500000	-83.754135
12585.937500	-84.139641
12609.375000	-84.860146
12632.812500	-85.859718
12656.250000	-86.865372
12679.687500	-87.757561
12703.125000	-88.749077
12726.562500	-90.081894
12750.000000	-91.250786
12773.437500	-92.297356
12796.875000	-93.438576
12820.312500	-94.137512
12843.750000	-94.839935
12867.187500	-95.832863
12890.625000	-96.442299
12914.062500	-97.654243
12937.500000	-99.450371
12960.937500	-102.280258
12984.375000	-105.749924
13007.812500	-103.478027
13031.250000	-98.944748
13054.687500	-95.543083
13078.125000	-93.295441
13101.562500	-91.521599
13125.000000	-90.234070
13148.437500	-89.061409
13171.875000	-88.261917
13195.312500	-87.412399
13218.750000	-86.845062
13242.187500	-86.344429
13265.625000	-85.992332
13289.062500	-86.018242
13312.500000	-86.178925
13335.937500	-86.162933
13359.375000	-86.121979
13382.812500	-86.150696
13406.250000	-86.034996
13429.687500	-85.987633
13453.125000	-85.715378
13476.562500	-85.922760
13500.000000	-85.574265
13523.437500	-85.751289
13546.875000	-85.924721
13570.312500	-85.281952
13593.750000	-84.607285
13617.187500	-84.587273
13640.625000	-84.350044
13664.062500	-83.923347
13687.500000	-83.776115
13710.937500	-83.364197
13734.375000	-82.831535
13757.812500	-82.530899
13781.250000	-82.640610
13804.687500	-82.587532
13828.125000	-82.202415
13851.562500	-82.000282
13875.000000	-81.933159
13898.437500	-82.037720
13921.875000	-82.335938
13945.312500	-82.200951
13968.750000	-82.036461
13992.187500	-82.344284
14015.625000	-82.000496
14039.062500	-81.828979
14062.500000	-81.969284
14085.937500	-82.062233
14109.375000	-81.910706
14132.812500	-81.834969
14156.250000	-81.586449
14179.687500	-81.361000
14203.125000	-81.458290
14226.562500	-81.369858
14250.000000	-81.012001
14273.437500	-81.473969
14296.875000	-82.222054
14320.312500	-82.382812
14343.750000	-82.366241
14367.187500	-82.350449
14390.625000	-82.073112
14414.062500	-82.182976
14437.500000	-82.126221
14460.937500	-81.659302
14484.375000	-81.494530
14507.812500	-81.674042
14531.250000	-81.508392
14554.687500	-80.762268
14578.125000	-80.805588
14601.562500	-81.211525
14625.000000	-81.321442
14648.437500	-81.708450
14671.875000	-82.122772
14695.312500	-82.313393
14718.750000	-82.637962
14742.187500	-83.082428
14765.625000	-83.717308
14789.062500	-84.617859
14812.500000	-85.210136
14835.937500	-86.144409
14859.375000	-86.653236
14882.812500	-87.706787
14906.250000	-89.264862
14929.687500	-91.052795
14953.125000	-92.717102
14976.562500	-94.342033
15000.000000	-95.293510
15023.437500	-95.666786
15046.875000	-94.838264
15070.312500	-94.202286
15093.750000	-93.189072
15117.187500	-92.571327
15140.625000	-92.476013
15164.062500	-92.736427
15187.500000	-92.842575
15210.937500	-93.972374
15234.375000	-95.113045
15257.812500	-96.950340
15281.250000	-99.523300
15304.687500	-101.944016
15328.125000	-102.232307
15351.562500	-99.813950
15375.000000	-97.887955
15398.437500	-95.321831
15421.875000	-93.190285
15445.312500	-91.400841
15468.750000	-90.031013
15492.187500	-88.723206
15515.625000	-87.477669
15539.062500	-86.372398
15562.500000	-85.670586
15585.937500	-85.020988
15609.375000	-84.553726
15632.812500	-84.584465
15656.250000	-84.959183
15679.687500	-85.381592
15703.125000	-85.608727
15726.562500	-86.533669
15750.000000	-87.177284
15773.437500	-88.699020
15796.875000	-90.278717
15820.312500	-92.157524
15843.750000	-93.908852
15867.187500	-96.680351
15890.625000	-100.550560
15914.062500	-102.581017
15937.500000	-100.048965
15960.937500	-96.946228
15984.375000	-94.622917
16007.812500	-92.708237
16031.250000	-91.357368
16054.687500	-90.447540
16078.125000	-90.176575
16101.562500	-89.674149
16125.000000	-89.049149
16148.437500	-88.752342
16171.875000	-88.352127
16195.312500	-88.134209
16218.750000	-88.038040
16242.187500	-87.597702
16265.625000	-87.012726
16289.062500	-86.762672
16312.500000	-86.628899
16335.937500	-86.514526
16359.375000	-86.036911
16382.812500	-85.341026
16406.250000	-85.524315
16429.687500	-85.684296
16453.125000	-85.395226
16476.562500	-85.349457
16500.000000	-85.694954
16523.437500	-85.635445
16546.875000	-85.631706
16570.312500	-86.180923
16593.750000	-86.754120
16617.187500	-86.941643
16640.625000	-87.220406
16664.062500	-87.755852
16687.500000	-88.263634
16710.937500	-88.750359
16734.375000	-89.802620
16757.812500	-90.272873
16781.250000	-91.189240
16804.687500	-92.531876
16828.125000	-93.448677
16851.562500	-94.704681
16875.000000	-96.762512
16898.437500	-99.241173
16921.875000	-101.949020
16945.312500	-102.027985
16968.750000	-103.528297
16992.187500	-103.174393
17015.625000	-102.269379
17039.062500	-101.375748
17062.500000	-101.477684
17085.937500	-101.658928
17109.375000	-101.042732
17132.812500	-100.133720
17156.250000	-99.767014
17179.687500	-100.986794
17203.125000	-100.917274
17226.562500	-100.707375
17250.000000	-100.227425
17273.437500	-101.381218
17296.875000	-101.191628
17320.312500	-100.596970
17343.750000	-98.376762
17367.187500	-99.119423
17390.625000	-99.247887
17414.062500	-99.004059
17437.500000	-97.641533
17460.937500	-97.551201
17484.375000	-97.865189
17507.812500	-97.656364
17531.250000	-97.506744
17554.687500	-96.844498
17578.125000	-97.468361
17601.562500	-97.804031
17625.000000	-98.184059
17648.437500	-97.827667
17671.875000	-98.407379
17695.312500	-98.117462
17718.750000	-98.784950
17742.187500	-98.677330
17765.625000	-98.691010
17789.062500	-98.396271
17812.500000	-98.455063
17835.937500	-97.950485
17859.375000	-97.826782
17882.812500	-98.284920
17906.250000	-97.911232
17929.687500	-97.340569
17953.125000	-96.887566
17976.562500	-95.256645
18000.000000	-95.792793
18023.437500	-98.488884
18046.875000	-97.712326
18070.312500	-98.440369
18093.750000	-98.866714
18117.187500	-99.250946
18140.625000	-97.295372
18164.062500	-98.385468
18187.500000	-99.684036
18210.937500	-100.272888
18234.375000	-98.399979
18257.812500	-98.121780
18281.250000	-99.440895
18304.687500	-99.550468
18328.125000	-98.817421
18351.562500	-97.391884
18375.000000	-98.482475
18398.437500	-98.333435
18421.875000	-97.873489
18445.312500	-96.480377
18468.750000	-97.113724
18492.187500	-97.461067
18515.625000	-96.860710
18539.062500	-96.605835
18562.500000	-96.543266
18585.937500	-96.532814
18609.375000	-96.853371
18632.812500	-96.613884
18656.250000	-96.021721
18679.687500	-96.680077
18703.125000	-96.478119
18726.562500	-96.251656
18750.000000	-95.480568
18773.437500	-96.980057
18796.875000	-97.555519
18820.312500	-97.203880
18843.750000	-96.194496
18867.187500	-96.916168
18890.625000	-97.087906
18914.062500	-97.214844
18937.500000	-96.150261
18960.937500	-96.660957
18984.375000	-97.482162
19007.812500	-97.317291
19031.250000	-96.661423
19054.687500	-96.337456
19078.125000	-97.624214
19101.562500	-97.991585
19125.000000	-97.640419
19148.437500	-96.355751
19171.875000	-97.849304
19195.312500	-98.258865
19218.750000	-98.135056
19242.187500	-97.007210
19265.625000	-97.887352
19289.062500	-98.485634
19312.500000	-98.483795
19335.937500	-97.575020
19359.375000	-97.730545
19382.812500	-98.441971
19406.250000	-98.455383
19429.687500	-97.948158
19453.125000	-97.410912
19476.562500	-98.531563
19500.000000	-98.645523
19523.437500	-98.535316
19546.875000	-97.365974
19570.312500	-98.531174
19593.750000	-98.833000
19617.187500	-98.768021
19640.625000	-97.590660
19664.062500	-98.051941
19687.500000	-98.373505
19710.937500	-98.524147
19734.375000	-97.667191
19757.812500	-97.864738
19781.250000	-98.658768
19804.687500	-98.669571
19828.125000	-98.764778
19851.562500	-98.506432
19875.000000	-98.829613
19898.437500	-98.552673
19921.875000	-98.478790
19945.312500	-97.477432
19968.750000	-98.702240
19992.187500	-99.041893
20015.625000	-98.898857
20039.062500	-98.699463
20062.500000	-98.866104
20085.937500	-99.408020
20109.375000	-99.374420
20132.812500	-99.361496
20156.250000	-99.635796
20179.687500	-100.073692
20203.125000	-100.104820
20226.562500	-100.151321
20250.000000	-99.813095
20273.437500	-100.476341
20296.875000	-100.707008
20320.312500	-100.753906
20343.750000	-99.997978
20367.187500	-100.770332
20390.625000	-101.409096
20414.062500	-101.461266
20437.500000	-100.395164
20460.937500	-100.782440
20484.375000	-102.018532
20507.812500	-101.923920
20531.250000	-101.997559
20554.687500	-101.876183
20578.125000	-102.199684
20601.562500	-101.919243
20625.000000	-101.988441
20648.437500	-101.857117
20671.875000	-102.630539
20695.312500	-102.975014
20718.750000	-102.829544
20742.187500	-102.892143
20765.625000	-103.060707
20789.062500	-102.950378
20812.500000	-103.181366
20835.937500	-102.365356
20859.375000	-102.614754
20882.812500	-103.585869
20906.250000	-103.725815
20929.687500	-103.821564
20953.125000	-103.692116
20976.562500	-103.921959
21000.000000	-103.801491
21023.437500	-104.121490
21046.875000	-103.814484
21070.312500	-103.887787
21093.750000	-104.167740
21117.187500	-104.503372
21140.625000	-104.190826
21164.062500	-104.374634
21187.500000	-104.543869
21210.937500	-104.778618
21234.375000	-104.588516
21257.812500	-104.520004
21281.250000	-104.798729
21304.687500	-104.926727
21328.125000	-104.786919
21351.562500	-104.584702
21375.000000	-104.950584
21398.437500	-104.729683
21421.875000	-105.160080
21445.312500	-105.271004
21468.750000	-105.244598
21492.187500	-104.850952
21515.625000	-105.128189
21539.062500	-105.205795
21562.500000	-104.958855
21585.937500	-104.942215
21609.375000	-104.975685
21632.812500	-105.344513
21656.250000	-105.418167
21679.687500	-105.615936
21703.125000	-105.401344
21726.562500	-105.512611
21750.000000	-105.451927
21773.437500	-105.309746
21796.875000	-105.452187
21820.312500	-105.440170
21843.750000	-105.571762
21867.187500	-105.550537
21890.625000	-105.804390
21914.062500	-105.869873
21937.500000	-105.795708
21960.937500	-105.493698
21984.375000	-105.864151
22007.812500	-105.679268
22031.250000	-105.632111
22054.687500	-105.396965
22078.125000	-105.497368
22101.562500	-106.105949
22125.000000	-105.928543
22148.437500	-105.803879
22171.875000	-105.970512
22195.312500	-106.199028
22218.750000	-106.295738
22242.187500	-106.075310
22265.625000	-106.260818
22289.062500	-106.193298
22312.500000	-106.119728
22335.937500	-106.284004
22359.375000	-106.097481
22382.812500	-106.006416
22406.250000	-106.019615
22429.687500	-106.339821
22453.125000	-106.259933
22476.562500	-106.152107
22500.000000	-106.263832
22523.437500	-106.189209
22546.875000	-106.073380
22570.312500	-105.525017
22593.750000	-104.586281
22617.187500	-105.930702
22640.625000	-106.350937
22664.062500	-106.648888
22687.500000	-106.615074
22710.937500	-106.260651
22734.375000	-105.818901
22757.812500	-106.046494
22781.250000	-106.389458
22804.687500	-106.309540
22828.125000	-106.189583
22851.562500	-106.295906
22875.000000	-106.507309
22898.437500	-106.244461
22921.875000	-106.399872
22945.312500	-106.245964
22968.750000	-106.513000
22992.187500	-106.625160
23015.625000	-106.376045
23039.062500	-106.261322
23062.500000	-106.562813
23085.937500	-106.553352
23109.375000	-106.552963
23132.812500	-106.726974
23156.250000	-106.845222
23179.687500	-106.588234
23203.125000	-106.644417
23226.562500	-106.745636
23250.000000	-106.650558
23273.437500	-106.572395
23296.875000	-106.461502
23320.312500	-106.477234
23343.750000	-106.540916
23367.187500	-106.603439
23390.625000	-106.957535
23414.062500	-106.952690
23437.500000	-106.846390
23460.937500	-106.558289
23484.375000	-106.675537
23507.812500	-106.868202
23531.250000	-106.453369
23554.687500	-106.353317
23578.125000	-106.388000
23601.562500	-106.449547
23625.000000	-106.530533
23648.437500	-106.431580
23671.875000	-106.768387
23695.312500	-106.538429
23718.750000	-106.511673
23742.187500	-106.026886
23765.625000	-106.393005
23789.062500	-106.478073
23812.500000	-106.825111
23835.937500	-106.830132
23859.375000	-106.784874
23882.812500	-106.494637
23906.250000	-106.558121
23929.687500	-106.742546
23953.125000	-106.485069
23976.562500	-106.630035
