Frequency (Hz)	Level (dB)
23.437500	-53.675465
46.875000	-45.829845
70.312500	-50.117382
93.750000	-64.965019
117.187500	-66.573914
140.625000	-76.553192
164.062500	-80.317795
187.500000	-78.339287
210.937500	-77.720222
234.375000	-82.920891
257.812500	-81.841896
281.250000	-76.486496
304.687500	-73.088768
328.125000	-74.914886
351.562500	-70.646339
375.000000	-76.740204
398.437500	-79.339615
421.875000	-80.143623
445.312500	-73.401337
468.750000	-76.608696
492.187500	-85.326378
515.625000	-84.454147
539.062500	-84.129570
562.500000	-85.969635
585.937500	-87.261177
609.375000	-87.064774
632.812500	-79.816788
656.250000	-77.048355
679.687500	-85.836891
703.125000	-91.606667
726.562500	-89.853249
750.000000	-84.170418
773.437500	-87.970001
796.875000	-85.791862
820.312500	-89.192429
843.750000	-90.148895
867.187500	-90.303757
890.625000	-86.997017
914.062500	-87.285286
937.500000	-83.272881
960.937500	-82.545685
984.375000	-90.104057
1007.812500	-89.727242
1031.250000	-90.501762
1054.687500	-86.883148
1078.125000	-90.819389
1101.562500	-88.729095
1125.000000	-87.163391
1148.437500	-87.213760
1171.875000	-88.420837
1195.312500	-88.825897
1218.750000	-87.176201
1242.187500	-82.872543
1265.625000	-84.723106
1289.062500	-91.936874
1312.500000	-92.575722
1335.937500	-91.504333
1359.375000	-89.382996
1382.812500	-90.603958
1406.250000	-87.165817
1429.687500	-85.428703
1453.125000	-85.500992
1476.562500	-84.966003
1500.000000	-83.893967
1523.437500	-86.048195
1546.875000	-87.670189
1570.312500	-88.519417
1593.750000	-88.986656
1617.187500	-86.893272
1640.625000	-82.425537
1664.062500	-80.384903
1687.500000	-80.387428
1710.937500	-81.420662
1734.375000	-82.107910
1757.812500	-82.278160
1781.250000	-83.909569
1804.687500	-84.423828
1828.125000	-84.023392
1851.562500	-82.183388
1875.000000	-79.585922
1898.437500	-79.929298
1921.875000	-82.495064
1945.312500	-83.113770
1968.750000	-82.208191
1992.187500	-81.571815
2015.625000	-81.249542
2039.062500	-80.570564
2062.500000	-79.398064
2085.937500	-78.364937
2109.375000	-77.721458
2132.812500	-78.100395
2156.250000	-77.682365
2179.687500	-76.684814
2203.125000	-77.068733
2226.562500	-78.126076
2250.000000	-79.920563
2273.437500	-80.793388
2296.875000	-81.391350
2320.312500	-81.975716
2343.750000	-82.017166
2367.187500	-82.924713
2390.625000	-83.762489
2414.062500	-84.966034
2437.500000	-87.707352
2460.937500	-91.535248
2484.375000	-97.093353
2507.812500	-100.067390
2531.250000	-100.951233
2554.687500	-98.164146
2578.125000	-95.714722
2601.562500	-93.661987
2625.000000	-91.900543
2648.437500	-89.014275
2671.875000	-88.059250
2695.312500	-90.270393
2718.750000	-92.447472
2742.187500	-89.897362
2765.625000	-86.997192
2789.062500	-84.645058
2812.500000	-83.044785
2835.937500	-82.379028
2859.375000	-83.178864
2882.812500	-85.109642
2906.250000	-86.422409
2929.687500	-84.934334
2953.125000	-83.543129
2976.562500	-82.150993
3000.000000	-82.263115
3023.437500	-82.380585
3046.875000	-81.043907
3070.312500	-80.142319
3093.750000	-79.883896
3117.187500	-80.273277
3140.625000	-80.978531
3164.062500	-81.003998
3187.500000	-80.533806
3210.937500	-79.190681
3234.375000	-77.531960
3257.812500	-77.004562
3281.250000	-76.272247
3304.687500	-75.914040
3328.125000	-76.437584
3351.562500	-78.187195
3375.000000	-81.789833
3398.437500	-87.474495
3421.875000	-93.130249
3445.312500	-88.523201
3468.750000	-85.558983
3492.187500	-85.170670
3515.625000	-85.522743
3539.062500	-86.453506
3562.500000	-87.343651
3585.937500	-86.983917
3609.375000	-86.656960
3632.812500	-86.642029
3656.250000	-86.644562
3679.687500	-86.750999
3703.125000	-87.459305
3726.562500	-87.174881
3750.000000	-85.925369
3773.437500	-85.826836
3796.875000	-85.692703
3820.312500	-85.560783
3843.750000	-86.149178
3867.187500	-86.655983
3890.625000	-87.106300
3914.062500	-88.042870
3937.500000	-88.872147
3960.937500	-89.390808
3984.375000	-89.716995
4007.812500	-90.725754
4031.250000	-92.398674
4054.687500	-94.208382
4078.125000	-96.744995
4101.562500	-99.623230
4125.000000	-102.762917
4148.437500	-104.754890
4171.875000	-107.457832
4195.312500	-107.696701
4218.750000	-106.556389
4242.187500	-104.444817
4265.625000	-104.253014
4289.062500	-103.084419
4312.500000	-100.595367
4335.937500	-99.363007
4359.375000	-97.685715
4382.812500	-94.509102
4406.250000	-91.147339
4429.687500	-88.634750
4453.125000	-86.515701
4476.562500	-85.156792
4500.000000	-84.219643
4523.437500	-84.097313
4546.875000	-83.858482
4570.312500	-83.918747
4593.750000	-84.742012
4617.187500	-85.867432
4640.625000	-87.570030
4664.062500	-90.271294
4687.500000	-93.376022
4710.937500	-96.914276
4734.375000	-99.264008
4757.812500	-97.018845
4781.250000	-93.552086
4804.687500	-90.475136
4828.125000	-88.230957
4851.562500	-86.514420
4875.000000	-84.800278
4898.437500	-83.053162
4921.875000	-81.415230
4945.312500	-80.447044
4968.750000	-80.535217
4992.187500	-80.239586
5015.625000	-79.794357
5039.062500	-79.929718
5062.500000	-80.415703
5085.937500	-81.649193
5109.375000	-82.942757
5132.812500	-84.136421
5156.250000	-84.352646
5179.687500	-84.041664
5203.125000	-83.691994
5226.562500	-82.965363
5250.000000	-82.246773
5273.437500	-82.531525
5296.875000	-83.386375
5320.312500	-84.404160
5343.750000	-84.591156
5367.187500	-83.625526
5390.625000	-82.098106
5414.062500	-81.102325
5437.500000	-79.879158
5460.937500	-78.797005
5484.375000	-78.039970
5507.812500	-77.753296
5531.250000	-77.473083
5554.687500	-77.449074
5578.125000	-78.107964
5601.562500	-78.346947
5625.000000	-77.962700
5648.437500	-78.165390
5671.875000	-78.440331
5695.312500	-79.113152
5718.750000	-80.116562
5742.187500	-81.727013
5765.625000	-83.320404
5789.062500	-84.358772
5812.500000	-85.408318
5835.937500	-85.159645
5859.375000	-83.977531
5882.812500	-81.955620
5906.250000	-79.736511
5929.687500	-76.983253
5953.125000	-75.146408
5976.562500	-73.649155
6000.000000	-73.013069
6023.437500	-73.743233
6046.875000	-74.484650
6070.312500	-75.502335
6093.750000	-75.894089
6117.187500	-75.820885
6140.625000	-76.125084
6164.062500	-75.871902
6187.500000	-75.484993
6210.937500	-75.125824
6234.375000	-75.140427
6257.812500	-74.627220
6281.250000	-74.652710
6304.687500	-74.846466
6328.125000	-75.519180
6351.562500	-75.712044
6375.000000	-75.971779
6398.437500	-76.006866
6421.875000	-75.311386
6445.312500	-74.511612
6468.750000	-74.303604
6492.187500	-74.043671
6515.625000	-73.966248
6539.062500	-74.192070
6562.500000	-74.600891
6585.937500	-75.200027
6609.375000	-76.631279
6632.812500	-78.641815
6656.250000	-81.940063
6679.687500	-85.908028
6703.125000	-89.717651
6726.562500	-94.979195
6750.000000	-91.231606
6773.437500	-85.295288
6796.875000	-81.362808
6820.312500	-78.885513
6843.750000	-76.858650
6867.187500	-75.242851
6890.625000	-74.410149
6914.062500	-73.358391
6937.500000	-72.191071
6960.937500	-71.361313
6984.375000	-70.877747
7007.812500	-70.337379
7031.250000	-70.149719
7054.687500	-69.904518
7078.125000	-69.916740
7101.562500	-69.967789
7125.000000	-70.437462
7148.437500	-71.183174
7171.875000	-71.646980
7195.312500	-71.544495
7218.750000	-72.441017
7242.187500	-73.331902
7265.625000	-74.209122
7289.062500	-74.680077
7312.500000	-75.798042
7335.937500	-76.937263
7359.375000	-78.110016
7382.812500	-79.004547
7406.250000	-80.108414
7429.687500	-81.568817
7453.125000	-83.334709
7476.562500	-85.411545
7500.000000	-87.271416
7523.437500	-88.356789
7546.875000	-88.563034
7570.312500	-88.374359
7593.750000	-89.078850
7617.187500	-89.788544
7640.625000	-90.236977
7664.062500	-90.600777
7687.500000	-90.700294
7710.937500	-90.193710
7734.375000	-89.783936
7757.812500	-88.292168
7781.250000	-87.254044
7804.687500	-86.464561
7828.125000	-85.064468
7851.562500	-84.110840
7875.000000	-83.237122
7898.437500	-82.686623
7921.875000	-82.060677
7945.312500	-81.559135
7968.750000	-81.666946
7992.187500	-81.934555
8015.625000	-82.007133
8039.062500	-82.098541
8062.500000	-81.696320
8085.937500	-81.488678
8109.375000	-81.862923
8132.812500	-82.036148
8156.250000	-82.721016
8179.687500	-82.937447
8203.125000	-83.909424
8226.562500	-84.420860
8250.000000	-84.606979
8273.437500	-85.650925
8296.875000	-86.963638
8320.312500	-88.774773
8343.750000	-89.988457
8367.187500	-91.310883
8390.625000	-92.592194
8414.062500	-92.880852
8437.500000	-93.104118
8460.937500	-92.891922
8484.375000	-92.520187
8507.812500	-92.113998
8531.250000	-91.375710
8554.687500	-91.479485
8578.125000	-90.589134
8601.562500	-89.694878
8625.000000	-89.404716
8648.437500	-88.805428
8671.875000	-87.925133
8695.312500	-87.697372
8718.750000	-87.312828
8742.187500	-87.456085
8765.625000	-87.211372
8789.062500	-86.907303
8812.500000	-86.983902
8835.937500	-86.635742
8859.375000	-86.900009
8882.812500	-87.215836
8906.250000	-87.124855
8929.687500	-87.185265
8953.125000	-87.232269
8976.562500	-87.090157
9000.000000	-86.606682
9023.437500	-86.409111
9046.875000	-86.076530
9070.312500	-85.848351
9093.750000	-86.201469
9117.187500	-86.405594
9140.625000	-86.646034
9164.062500	-86.954384
9187.500000	-87.510422
9210.937500	-88.442299
9234.375000	-89.312965
9257.812500	-90.020515
9281.250000	-90.546417
9304.687500	-91.922119
9328.125000	-93.227753
9351.562500	-94.263474
9375.000000	-95.559456
9398.437500	-96.496948
9421.875000	-97.481918
9445.312500	-98.374542
9468.750000	-98.856155
9492.187500	-99.969032
9515.625000	-100.645523
9539.062500	-101.267708
9562.500000	-101.353279
9585.937500	-102.070984
9609.375000	-101.153076
9632.812500	-100.268280
9656.250000	-98.834129
9679.687500	-97.972908
9703.125000	-97.858208
9726.562500	-97.289368
9750.000000	-96.757561
9773.437500	-96.618736
9796.875000	-96.128822
9820.312500	-95.755005
9843.750000	-96.023689
9867.187500	-96.490677
9890.625000	-97.420944
9914.062500	-98.341728
9937.500000	-97.451950
9960.937500	-98.702164
9984.375000	-102.405579
10007.812500	-104.029999
10031.250000	-99.168808
10054.687500	-97.369301
10078.125000	-103.161545
10101.562500	-103.522255
10125.000000	-101.293983
10148.437500	-98.921906
10171.875000	-97.703659
10195.312500	-96.174377
10218.750000	-94.678032
10242.187500	-93.400108
10265.625000	-91.892807
10289.062500	-90.730736
10312.500000	-89.503136
10335.937500	-88.973389
10359.375000	-88.408440
10382.812500	-88.134308
10406.250000	-88.008438
10429.687500	-87.354309
10453.125000	-87.257744
10476.562500	-87.260086
10500.000000	-87.316086
10523.437500	-87.573814
10546.875000	-87.667351
10570.312500	-87.820992
10593.750000	-88.123482
10617.187500	-88.273193
10640.625000	-88.554909
10664.062500	-89.308136
10687.500000	-89.729515
10710.937500	-89.345032
10734.375000	-89.286308
10757.812500	-89.878731
10781.250000	-89.718185
10804.687500	-89.890396
10828.125000	-90.110535
10851.562500	-89.694412
10875.000000	-89.861465
10898.437500	-89.872581
10921.875000	-90.050842
10945.312500	-90.348022
10968.750000	-90.736633
10992.187500	-90.772491
11015.625000	-90.292297
11039.062500	-90.347122
11062.500000	-90.347862
11085.937500	-90.369926
11109.375000	-90.543884
11132.812500	-90.573906
11156.250000	-90.527748
11179.687500	-90.790230
11203.125000	-90.829048
11226.562500	-90.292747
11250.000000	-90.730774
11273.437500	-91.300049
11296.875000	-91.156624
11320.312500	-91.207191
11343.750000	-91.264587
11367.187500	-91.383430
11390.625000	-91.526787
11414.062500	-91.830551
11437.500000	-91.926155
11460.937500	-92.031418
11484.375000	-91.984360
11507.812500	-92.058037
11531.250000	-92.400192
11554.687500	-92.469551
11578.125000	-93.321785
11601.562500	-94.011566
11625.000000	-94.766739
11648.437500	-95.463615
11671.875000	-95.707260
11695.312500	-95.197205
11718.750000	-93.998795
11742.187500	-92.256241
11765.625000	-90.273232
11789.062500	-89.102371
11812.500000	-87.692650
11835.937500	-86.674477
11859.375000	-85.686165
11882.812500	-85.279297
11906.250000	-84.675377
11929.687500	-84.451248
11953.125000	-84.718124
11976.562500	-84.925842
12000.000000	-85.121277
12023.437500	-85.693031
12046.875000	-86.125908
12070.312500	-87.077965
12093.750000	-87.974564
12117.187500	-88.798828
12140.625000	-89.939903
12164.062500	-90.233490
12187.500000	-90.256042
12210.937500	-90.075211
12234.375000	-89.179520
12257.812500	-88.568573
12281.250000	-87.736099
12304.687500	-87.031776
12328.125000	-86.018051
12351.562500	-85.614708
12375.000000	-85.358376
12398.437500	-84.967033
12421.875000	-84.427986
12445.312500	-84.246643
12468.750000	-84.198448
12492.187500	-83.981529
12515.625000	-84.419518
12539.062500	-85.332993
12562.500000	-85.596947
12585.937500	-85.808968
12609.375000	-86.367859
12632.812500	-86.851173
12656.250000	-87.142334
12679.687500	-87.305000
12703.125000	-87.389969
12726.562500	-87.556984
12750.000000	-87.303764
12773.437500	-86.837959
12796.875000	-86.165527
12820.312500	-85.051682
12843.750000	-84.012207
12867.187500	-82.986923
12890.625000	-81.881859
12914.062500	-81.121727
12937.500000	-80.690437
12960.937500	-79.976189
12984.375000	-79.618706
13007.812500	-79.477547
13031.250000	-79.524147
13054.687500	-79.250656
13078.125000	-79.299896
13101.562500	-79.585281
13125.000000	-79.835892
13148.437500	-79.875244
13171.875000	-80.215981
13195.312500	-80.377762
13218.750000	-80.451729
13242.187500	-80.733116
13265.625000	-80.816376
13289.062500	-81.271553
13312.500000	-81.935555
13335.937500	-82.289635
13359.375000	-82.484352
13382.812500	-82.940948
13406.250000	-83.087044
13429.687500	-83.354912
13453.125000	-83.709068
13476.562500	-84.315140
13500.000000	-84.227158
13523.437500	-84.720085
13546.875000	-85.721962
13570.312500	-85.959961
13593.750000	-86.369766
13617.187500	-87.626266
13640.625000	-88.598213
13664.062500	-89.411736
13687.500000	-90.506699
13710.937500	-91.062225
13734.375000	-91.530525
13757.812500	-91.853882
13781.250000	-92.213631
13804.687500	-92.302704
13828.125000	-92.220024
13851.562500	-92.401001
13875.000000	-92.660049
13898.437500	-92.778610
13921.875000	-93.192245
13945.312500	-93.121552
13968.750000	-92.828125
13992.187500	-93.048256
14015.625000	-92.447357
14039.062500	-91.898918
14062.500000	-91.659439
14085.937500	-91.318527
14109.375000	-90.481926
14132.812500	-89.870987
14156.250000	-89.043686
14179.687500	-88.361801
14203.125000	-87.940529
14226.562500	-87.160339
14250.000000	-86.403305
14273.437500	-86.441986
14296.875000	-86.722328
14320.312500	-86.378868
14343.750000	-85.880913
14367.187500	-85.532898
14390.625000	-85.187637
14414.062500	-85.549164
14437.500000	-85.607056
14460.937500	-85.392708
14484.375000	-85.718353
14507.812500	-86.270752
14531.250000	-86.647446
14554.687500	-86.555260
14578.125000	-87.270775
14601.562500	-88.458214
14625.000000	-89.473694
14648.437500	-90.598251
14671.875000	-91.915924
14695.312500	-93.091713
14718.750000	-94.272888
14742.187500	-95.424004
14765.625000	-96.256310
14789.062500	-97.133690
14812.500000	-96.611046
14835.937500	-95.898651
14859.375000	-95.143723
14882.812500	-95.028717
14906.250000	-95.483566
14929.687500	-96.218460
14953.125000	-96.817001
14976.562500	-97.553345
15000.000000	-98.081306
15023.437500	-99.460945
15046.875000	-100.642250
15070.312500	-101.416817
15093.750000	-102.283379
15117.187500	-101.639923
15140.625000	-101.008629
15164.062500	-100.310898
15187.500000	-99.742599
15210.937500	-98.503403
15234.375000	-96.823151
15257.812500	-95.281990
15281.250000	-94.602211
15304.687500	-94.050133
15328.125000	-93.335968
15351.562500	-92.227951
15375.000000	-91.752823
15398.437500	-91.255814
15421.875000	-90.822517
15445.312500	-90.705719
15468.750000	-90.617050
15492.187500	-90.889320
15515.625000	-91.094688
15539.062500	-91.381424
15562.500000	-91.725098
15585.937500	-92.735641
15609.375000	-93.840530
15632.812500	-95.311478
15656.250000	-97.234741
15679.687500	-100.188416
15703.125000	-102.631485
15726.562500	-102.584991
15750.000000	-99.640251
15773.437500	-96.927605
15796.875000	-95.476692
15820.312500	-94.085167
15843.750000	-92.618912
15867.187500	-91.730095
15890.625000	-91.188309
15914.062500	-91.027634
15937.500000	-90.567795
15960.937500	-89.888000
15984.375000	-89.789383
16007.812500	-89.740707
16031.250000	-89.948776
16054.687500	-89.821381
16078.125000	-90.067444
16101.562500	-90.323456
16125.000000	-90.312561
16148.437500	-90.418396
16171.875000	-90.248573
16195.312500	-90.501450
16218.750000	-90.899048
16242.187500	-90.984131
16265.625000	-90.992752
16289.062500	-91.440285
16312.500000	-91.895821
16335.937500	-92.387108
16359.375000	-92.590508
16382.812500	-92.473137
16406.250000	-92.720551
16429.687500	-93.222580
16453.125000	-93.237831
16476.562500	-93.292595
16500.000000	-93.872948
16523.437500	-94.068466
16546.875000	-94.069420
16570.312500	-94.412003
16593.750000	-95.421616
16617.187500	-95.713715
16640.625000	-96.085213
16664.062500	-96.034798
16687.500000	-96.721649
16710.937500	-97.400269
16734.375000	-98.115776
16757.812500	-97.461967
16781.250000	-97.542984
16804.687500	-98.231026
16828.125000	-97.802475
16851.562500	-97.286118
16875.000000	-96.649246
16898.437500	-97.760681
16921.875000	-98.359436
16945.312500	-98.181198
16968.750000	-97.548927
16992.187500	-98.997826
17015.625000	-99.795700
17039.062500	-100.291183
17062.500000	-99.609009
17085.937500	-100.600868
17109.375000	-101.716736
17132.812500	-102.157463
17156.250000	-101.386902
17179.687500	-101.326523
17203.125000	-101.852043
17226.562500	-101.623795
17250.000000	-100.947426
17273.437500	-100.147598
17296.875000	-100.396263
17320.312500	-99.901855
17343.750000	-99.657120
17367.187500	-98.411903
17390.625000	-98.930977
17414.062500	-99.056847
17437.500000	-99.011917
17460.937500	-97.873352
17484.375000	-97.980850
17507.812500	-98.681992
17531.250000	-98.513351
17554.687500	-97.297379
17578.125000	-97.185112
17601.562500	-97.697845
17625.000000	-97.619110
17648.437500	-97.282944
17671.875000	-96.536385
17695.312500	-97.276505
17718.750000	-97.202568
17742.187500	-96.907883
17765.625000	-96.138901
17789.062500	-96.506165
17812.500000	-96.914467
17835.937500	-96.786552
17859.375000	-96.132179
17882.812500	-96.139481
17906.250000	-96.405800
17929.687500	-96.168510
17953.125000	-95.955223
17976.562500	-92.409363
18000.000000	-93.161865
18023.437500	-95.999039
18046.875000	-96.568329
18070.312500	-96.432899
18093.750000	-96.799332
18117.187500	-96.913956
18140.625000	-97.444496
18164.062500	-97.160355
18187.500000	-97.317924
18210.937500	-97.301559
18234.375000	-97.445381
18257.812500	-97.149841
18281.250000	-96.854477
18304.687500	-97.617302
18328.125000	-97.748505
18351.562500	-97.201897
18375.000000	-96.282700
18398.437500	-97.511864
18421.875000	-97.755470
18445.312500	-97.861336
18468.750000	-96.547043
18492.187500	-97.426498
18515.625000	-97.732414
18539.062500	-98.397141
18562.500000	-97.015984
18585.937500	-97.342606
18609.375000	-97.871353
18632.812500	-97.968140
18656.250000	-97.051315
18679.687500	-96.860626
18703.125000	-97.983543
18726.562500	-97.724770
18750.000000	-97.806244
18773.437500	-97.155426
18796.875000	-98.351982
18820.312500	-98.360985
18843.750000	-98.287910
18867.187500	-96.775078
18890.625000	-98.091133
18914.062500	-98.691307
18937.500000	-98.636475
18960.937500	-97.207062
18984.375000	-97.577110
19007.812500	-98.265999
19031.250000	-98.203377
19054.687500	-97.358856
19078.125000	-96.666275
19101.562500	-98.475990
19125.000000	-98.246689
19148.437500	-97.497147
19171.875000	-95.296349
19195.312500	-97.693550
19218.750000	-98.344658
19242.187500	-98.321213
19265.625000	-96.592133
19289.062500	-97.484520
19312.500000	-98.231972
19335.937500	-98.288651
19359.375000	-97.067719
19382.812500	-97.265076
19406.250000	-98.631866
19429.687500	-98.266762
19453.125000	-97.699837
19476.562500	-96.910469
19500.000000	-98.164772
19523.437500	-98.381775
19546.875000	-98.169624
19570.312500	-96.615608
19593.750000	-98.058350
19617.187500	-98.510109
19640.625000	-98.392998
19664.062500	-96.342125
19687.500000	-97.138748
19710.937500	-98.843674
19734.375000	-98.679977
19757.812500	-98.470581
19781.250000	-98.085030
19804.687500	-99.014595
19828.125000	-98.940887
19851.562500	-98.979111
19875.000000	-98.352768
19898.437500	-98.862381
19921.875000	-98.741730
19945.312500	-99.279625
19968.750000	-98.145264
19992.187500	-98.906921
20015.625000	-99.319077
20039.062500	-99.320541
20062.500000	-99.070892
20085.937500	-99.238472
20109.375000	-100.019707
20132.812500	-99.974983
20156.250000	-99.884132
20179.687500	-99.732224
20203.125000	-100.814171
20226.562500	-100.724670
20250.000000	-100.966362
20273.437500	-101.241661
20296.875000	-101.475380
20320.312500	-100.998489
20343.750000	-101.131889
20367.187500	-100.294060
20390.625000	-101.096909
20414.062500	-101.782616
20437.500000	-102.050865
20460.937500	-101.695061
20484.375000	-101.814224
20507.812500	-102.430717
20531.250000	-102.401894
20554.687500	-102.505814
20578.125000	-102.351913
20601.562500	-102.890717
20625.000000	-102.576843
20648.437500	-102.948959
20671.875000	-102.506569
20695.312500	-103.094856
20718.750000	-103.508766
20742.187500	-103.850792
20765.625000	-103.408554
20789.062500	-103.458595
20812.500000	-103.783485
20835.937500	-103.858353
20859.375000	-102.891113
20882.812500	-102.709221
20906.250000	-104.229645
20929.687500	-104.208359
20953.125000	-104.158005
20976.562500	-104.164429
21000.000000	-104.878166
21023.437500	-104.451645
21046.875000	-104.642776
21070.312500	-104.344734
21093.750000	-104.969681
21117.187500	-105.312729
21140.625000	-105.181808
21164.062500	-104.799698
21187.500000	-105.145973
21210.937500	-105.389641
21234.375000	-105.634941
21257.812500	-105.452240
21281.250000	-105.275047
21304.687500	-105.548447
21328.125000	-105.280891
21351.562500	-105.389076
21375.000000	-104.837959
21398.437500	-105.748863
21421.875000	-105.740044
21445.312500	-106.183998
21468.750000	-106.023697
21492.187500	-106.152176
21515.625000	-106.292564
21539.062500	-106.403030
21562.500000	-105.658241
21585.937500	-105.739166
21609.375000	-106.639091
21632.812500	-106.441849
21656.250000	-106.084297
21679.687500	-106.227669
21703.125000	-106.628548
21726.562500	-106.531769
21750.000000	-106.457359
21773.437500	-105.816849
21796.875000	-106.314644
21820.312500	-106.348572
21843.750000	-106.451859
21867.187500	-106.323189
21890.625000	-106.628860
21914.062500	-106.842766
21937.500000	-106.767540
21960.937500	-106.984894
21984.375000	-106.856293
22007.812500	-107.213913
22031.250000	-107.246712
22054.687500	-107.090622
22078.125000	-106.475349
22101.562500	-106.923882
22125.000000	-107.209084
22148.437500	-107.444954
22171.875000	-107.245071
22195.312500	-107.562927
22218.750000	-107.399498
22242.187500	-107.282463
22265.625000	-107.004868
22289.062500	-107.239357
22312.500000	-107.612877
22335.937500	-107.523705
22359.375000	-107.263153
22382.812500	-107.339142
22406.250000	-107.326393
22429.687500	-107.494057
22453.125000	-107.304581
22476.562500	-107.116104
22500.000000	-107.468056
22523.437500	-107.573311
22546.875000	-107.441032
22570.312500	-106.666306
22593.750000	-105.666855
22617.187500	-106.825142
22640.625000	-107.674263
22664.062500	-107.764557
22687.500000	-107.606033
22710.937500	-107.690376
22734.375000	-107.818726
22757.812500	-107.952133
22781.250000	-107.898674
22804.687500	-108.020966
22828.125000	-108.203140
22851.562500	-108.250473
22875.000000	-108.207726
22898.437500	-107.965111
22921.875000	-108.204964
22945.312500	-108.523521
22968.750000	-108.390739
22992.187500	-107.823479
23015.625000	-107.943199
23039.062500	-108.549065
23062.500000	-108.692581
23085.937500	-108.541054
23109.375000	-108.171844
23132.812500	-108.240173
23156.250000	-108.364304
23179.687500	-108.280548
23203.125000	-108.416016
23226.562500	-108.111748
23250.000000	-108.339394
23273.437500	-108.363007
23296.875000	-108.493675
23320.312500	-108.735626
23343.750000	-108.606544
23367.187500	-108.408943
23390.625000	-108.639870
23414.062500	-108.820999
23437.500000	-108.719337
23460.937500	-108.486595
23484.375000	-108.148361
23507.812500	-108.495743
23531.250000	-108.555199
23554.687500	-108.512856
23578.125000	-108.479561
23601.562500	-108.432594
23625.000000	-108.181793
23648.437500	-107.967316
23671.875000	-108.389992
23695.312500	-108.623245
23718.750000	-108.317703
23742.187500	-108.517990
23765.625000	-108.628876
23789.062500	-108.720474
23812.500000	-108.828987
23835.937500	-108.594330
23859.375000	-108.590660
23882.812500	-108.267532
23906.250000	-108.574135
23929.687500	-108.332008
23953.125000	-108.514618
23976.562500	-108.515015
