Frequency (Hz)	Level (dB)
23.437500	-52.100060
46.875000	-44.285912
70.312500	-48.606483
93.750000	-65.106277
117.187500	-67.853729
140.625000	-75.889069
164.062500	-78.022552
187.500000	-77.920952
210.937500	-77.546402
234.375000	-80.623871
257.812500	-75.739075
281.250000	-73.274429
304.687500	-71.700386
328.125000	-72.469147
351.562500	-68.037956
375.000000	-74.128983
398.437500	-77.890053
421.875000	-78.567329
445.312500	-71.943481
468.750000	-75.295555
492.187500	-84.138008
515.625000	-86.305145
539.062500	-86.937248
562.500000	-87.100296
585.937500	-86.561066
609.375000	-85.149887
632.812500	-73.541252
656.250000	-70.850021
679.687500	-80.288414
703.125000	-89.520149
726.562500	-82.683807
750.000000	-76.934776
773.437500	-82.267548
796.875000	-84.161156
820.312500	-87.544022
843.750000	-87.553246
867.187500	-88.801346
890.625000	-87.755829
914.062500	-82.342171
937.500000	-74.782173
960.937500	-74.856224
984.375000	-84.914978
1007.812500	-87.127213
1031.250000	-91.414536
1054.687500	-92.780266
1078.125000	-93.667801
1101.562500	-92.930511
1125.000000	-89.032753
1148.437500	-83.793114
1171.875000	-87.664436
1195.312500	-90.103439
1218.750000	-88.145500
1242.187500	-82.465324
1265.625000	-84.299660
1289.062500	-90.475494
1312.500000	-91.715385
1335.937500	-90.407364
1359.375000	-88.259506
1382.812500	-86.534180
1406.250000	-83.775772
1429.687500	-86.107475
1453.125000	-89.620262
1476.562500	-92.729935
1500.000000	-91.401062
1523.437500	-91.937950
1546.875000	-87.847321
1570.312500	-90.710274
1593.750000	-93.601852
1617.187500	-93.371429
1640.625000	-89.820122
1664.062500	-90.731834
1687.500000	-92.255119
1710.937500	-91.176331
1734.375000	-88.275200
1757.812500	-87.217659
1781.250000	-92.560112
1804.687500	-94.492661
1828.125000	-97.192955
1851.562500	-97.235939
1875.000000	-98.019661
1898.437500	-96.353470
1921.875000	-93.702873
1945.312500	-89.354622
1968.750000	-88.313858
1992.187500	-88.699318
2015.625000	-88.311607
2039.062500	-83.554695
2062.500000	-81.959427
2085.937500	-83.519051
2109.375000	-85.410530
2132.812500	-87.324677
2156.250000	-88.924774
2179.687500	-90.219368
2203.125000	-91.076347
2226.562500	-92.082886
2250.000000	-92.318901
2273.437500	-90.918243
2296.875000	-89.493912
2320.312500	-90.056732
2343.750000	-90.754677
2367.187500	-93.890450
2390.625000	-97.569771
2414.062500	-98.523453
2437.500000	-93.154686
2460.937500	-88.942101
2484.375000	-87.549210
2507.812500	-88.132454
2531.250000	-89.701370
2554.687500	-91.006432
2578.125000	-92.982353
2601.562500	-94.007210
2625.000000	-95.393753
2648.437500	-96.624176
2671.875000	-98.642563
2695.312500	-99.768318
2718.750000	-100.099045
2742.187500	-98.940247
2765.625000	-99.164238
2789.062500	-98.868423
2812.500000	-99.186043
2835.937500	-98.384216
2859.375000	-97.769547
2882.812500	-98.391975
2906.250000	-98.033028
2929.687500	-98.982620
2953.125000	-98.375740
2976.562500	-97.355240
3000.000000	-97.116287
3023.437500	-98.181145
3046.875000	-97.520500
3070.312500	-97.572678
3093.750000	-96.662827
3117.187500	-97.297668
3140.625000	-97.807396
3164.062500	-98.582581
3187.500000	-100.193085
3210.937500	-100.398575
3234.375000	-98.223793
3257.812500	-97.537369
3281.250000	-99.953178
3304.687500	-101.587311
3328.125000	-104.362175
3351.562500	-102.174866
3375.000000	-100.586021
3398.437500	-97.572594
3421.875000	-94.682762
3445.312500	-92.495857
3468.750000	-91.318512
3492.187500	-90.248817
3515.625000	-89.375999
3539.062500	-89.980736
3562.500000	-90.893585
3585.937500	-91.949722
3609.375000	-93.591362
3632.812500	-95.032547
3656.250000	-96.540359
3679.687500	-97.692474
3703.125000	-98.910545
3726.562500	-99.404655
3750.000000	-97.742325
3773.437500	-96.528084
3796.875000	-94.535622
3820.312500	-93.002266
3843.750000	-91.554436
3867.187500	-89.780632
3890.625000	-88.108971
3914.062500	-87.078781
3937.500000	-86.397354
3960.937500	-85.419167
3984.375000	-83.870323
4007.812500	-82.452805
4031.250000	-81.410004
4054.687500	-81.052994
4078.125000	-82.200249
4101.562500	-85.287956
4125.000000	-88.533325
4148.437500	-90.728806
4171.875000	-92.188126
4195.312500	-93.830101
4218.750000	-95.271477
4242.187500	-95.409630
4265.625000	-96.666237
4289.062500	-97.515244
4312.500000	-95.944397
4335.937500	-94.548943
4359.375000	-93.760071
4382.812500	-93.003304
4406.250000	-92.316254
4429.687500	-91.997124
4453.125000	-91.421928
4476.562500	-90.361977
4500.000000	-89.042801
4523.437500	-88.488556
4546.875000	-87.673683
4570.312500	-87.099747
4593.750000	-87.388268
4617.187500	-88.059753
4640.625000	-89.262367
4664.062500	-90.710930
4687.500000	-91.539688
4710.937500	-91.342255
4734.375000	-90.675346
4757.812500	-90.574898
4781.250000	-90.796928
4804.687500	-91.172707
4828.125000	-90.950462
4851.562500	-90.422653
4875.000000	-90.578209
4898.437500	-90.606216
4921.875000	-90.740417
4945.312500	-91.466530
4968.750000	-93.589493
4992.187500	-95.800293
5015.625000	-97.023323
5039.062500	-97.592308
5062.500000	-97.359222
5085.937500	-96.342659
5109.375000	-95.691170
5132.812500	-94.829597
5156.250000	-92.784790
5179.687500	-90.279655
5203.125000	-88.075066
5226.562500	-85.575195
5250.000000	-83.570686
5273.437500	-82.473862
5296.875000	-81.306595
5320.312500	-79.953766
5343.750000	-78.696869
5367.187500	-77.818375
5390.625000	-77.152115
5414.062500	-77.154236
5437.500000	-77.434998
5460.937500	-78.353409
5484.375000	-80.396759
5507.812500	-82.817207
5531.250000	-84.730988
5554.687500	-85.907417
5578.125000	-86.903290
5601.562500	-86.145409
5625.000000	-83.654381
5648.437500	-81.603775
5671.875000	-79.565918
5695.312500	-78.000992
5718.750000	-76.550064
5742.187500	-75.455757
5765.625000	-74.504852
5789.062500	-73.854393
5812.500000	-74.452362
5835.937500	-75.109276
5859.375000	-75.965080
5882.812500	-76.083778
5906.250000	-76.006645
5929.687500	-75.440964
5953.125000	-75.403572
5976.562500	-75.832527
6000.000000	-76.848885
6023.437500	-78.381355
6046.875000	-79.404160
6070.312500	-80.146767
6093.750000	-79.908295
6117.187500	-79.077164
6140.625000	-78.780373
6164.062500	-78.151192
6187.500000	-77.597496
6210.937500	-77.318687
6234.375000	-77.091652
6257.812500	-76.237312
6281.250000	-75.524025
6304.687500	-74.947166
6328.125000	-74.633606
6351.562500	-73.838928
6375.000000	-73.440765
6398.437500	-73.301720
6421.875000	-73.224358
6445.312500	-73.373215
6468.750000	-74.623596
6492.187500	-76.542717
6515.625000	-78.793831
6539.062500	-80.784691
6562.500000	-81.069344
6585.937500	-79.674751
6609.375000	-78.487770
6632.812500	-77.776741
6656.250000	-77.715202
6679.687500	-77.148163
6703.125000	-75.063538
6726.562500	-73.399750
6750.000000	-72.180542
6773.437500	-71.584801
6796.875000	-71.813042
6820.312500	-72.150963
6843.750000	-72.602531
6867.187500	-72.622124
6890.625000	-73.144218
6914.062500	-73.318588
6937.500000	-73.149193
6960.937500	-73.417854
6984.375000	-73.812599
7007.812500	-73.562416
7031.250000	-72.711105
7054.687500	-71.557594
7078.125000	-70.754868
7101.562500	-69.853455
7125.000000	-69.687515
7148.437500	-70.035431
7171.875000	-69.880432
7195.312500	-69.280502
7218.750000	-69.664230
7242.187500	-70.218117
7265.625000	-71.116562
7289.062500	-71.413910
7312.500000	-72.050308
7335.937500	-72.940269
7359.375000	-73.601616
7382.812500	-74.167755
7406.250000	-74.319962
7429.687500	-74.146217
7453.125000	-74.123459
7476.562500	-74.084564
7500.000000	-73.945557
7523.437500	-73.865250
7546.875000	-73.776711
7570.312500	-73.703377
7593.750000	-74.278503
7617.187500	-74.492195
7640.625000	-74.599411
7664.062500	-74.859886
7687.500000	-75.162575
7710.937500	-75.373947
7734.375000	-76.348198
7757.812500	-76.759514
7781.250000	-77.306808
7804.687500	-78.652908
7828.125000	-79.660080
7851.562500	-81.147057
7875.000000	-83.474144
7898.437500	-86.097031
7921.875000	-89.145744
7945.312500	-91.919151
7968.750000	-95.768768
7992.187500	-101.775841
8015.625000	-106.158669
8039.062500	-101.518936
8062.500000	-97.246117
8085.937500	-93.920502
8109.375000	-91.094559
8132.812500	-88.461884
8156.250000	-86.691467
8179.687500	-84.929649
8203.125000	-84.255699
8226.562500	-83.457794
8250.000000	-82.838959
8273.437500	-83.029739
8296.875000	-83.738281
8320.312500	-85.119659
8343.750000	-86.239479
8367.187500	-87.639503
8390.625000	-89.490494
8414.062500	-91.589249
8437.500000	-94.966873
8460.937500	-98.759201
8484.375000	-101.398491
8507.812500	-99.393517
8531.250000	-96.309036
8554.687500	-94.233856
8578.125000	-92.030411
8601.562500	-90.460342
8625.000000	-89.980095
8648.437500	-89.938560
8671.875000	-89.667122
8695.312500	-90.109520
8718.750000	-90.286850
8742.187500	-90.507278
8765.625000	-90.549240
8789.062500	-90.261276
8812.500000	-90.461159
8835.937500	-89.773987
8859.375000	-89.754997
8882.812500	-90.180885
8906.250000	-90.150497
8929.687500	-90.136017
8953.125000	-90.206223
8976.562500	-90.112106
9000.000000	-89.553802
9023.437500	-89.467979
9046.875000	-88.926514
9070.312500	-88.419586
9093.750000	-88.131958
9117.187500	-87.327873
9140.625000	-86.558418
9164.062500	-85.569374
9187.500000	-84.733383
9210.937500	-84.291412
9234.375000	-83.903519
9257.812500	-83.386322
9281.250000	-82.885742
9304.687500	-82.998177
9328.125000	-83.185600
9351.562500	-83.402855
9375.000000	-83.923485
9398.437500	-84.188278
9421.875000	-84.534920
9445.312500	-84.802231
9468.750000	-84.546196
9492.187500	-84.426277
9515.625000	-84.012512
9539.062500	-83.610596
9562.500000	-83.631699
9585.937500	-83.826103
9609.375000	-83.563873
9632.812500	-84.011658
9656.250000	-84.355698
9679.687500	-84.745064
9703.125000	-85.919342
9726.562500	-86.805321
9750.000000	-87.424721
9773.437500	-88.158836
9796.875000	-88.631004
9820.312500	-88.893013
9843.750000	-89.585991
9867.187500	-90.457092
9890.625000	-91.354469
9914.062500	-92.390297
9937.500000	-92.782875
9960.937500	-93.660431
9984.375000	-94.807266
10007.812500	-96.141212
10031.250000	-97.345695
10054.687500	-98.332832
10078.125000	-101.267021
10101.562500	-103.507698
10125.000000	-103.593407
10148.437500	-102.652390
10171.875000	-102.434349
10195.312500	-100.444458
10218.750000	-98.355850
10242.187500	-96.359306
10265.625000	-94.134781
10289.062500	-92.563751
10312.500000	-90.925362
10335.937500	-90.071930
10359.375000	-89.267975
10382.812500	-88.746635
10406.250000	-88.248489
10429.687500	-87.475815
10453.125000	-86.988159
10476.562500	-86.706093
10500.000000	-86.389923
10523.437500	-86.289238
10546.875000	-86.091248
10570.312500	-85.927818
10593.750000	-85.802277
10617.187500	-85.457047
10640.625000	-85.347336
10664.062500	-85.951782
10687.500000	-86.312073
10710.937500	-86.417381
10734.375000	-86.598091
10757.812500	-87.684868
10781.250000	-88.551903
10804.687500	-89.475029
10828.125000	-90.865250
10851.562500	-91.389595
10875.000000	-92.424629
10898.437500	-93.001373
10921.875000	-93.228096
10945.312500	-92.941978
10968.750000	-92.474770
10992.187500	-91.174698
11015.625000	-89.597137
11039.062500	-88.765701
11062.500000	-87.995422
11085.937500	-87.138443
11109.375000	-86.594055
11132.812500	-85.782486
11156.250000	-85.282379
11179.687500	-85.077087
11203.125000	-84.554535
11226.562500	-83.671898
11250.000000	-83.564064
11273.437500	-83.394569
11296.875000	-82.972115
11320.312500	-82.876762
11343.750000	-82.732986
11367.187500	-82.845085
11390.625000	-83.288254
11414.062500	-84.031036
11437.500000	-85.126099
11460.937500	-86.044792
11484.375000	-86.915482
11507.812500	-87.129860
11531.250000	-86.880890
11554.687500	-86.148270
11578.125000	-85.723846
11601.562500	-85.071777
11625.000000	-84.586212
11648.437500	-84.475258
11671.875000	-84.437378
11695.312500	-84.544708
11718.750000	-84.798592
11742.187500	-85.263741
11765.625000	-85.457512
11789.062500	-85.756966
11812.500000	-85.586105
11835.937500	-85.521057
11859.375000	-85.079903
11882.812500	-84.959763
11906.250000	-84.447685
11929.687500	-84.127708
11953.125000	-84.191483
11976.562500	-84.249672
12000.000000	-84.093742
12023.437500	-83.920456
12046.875000	-83.375092
12070.312500	-83.479256
12093.750000	-83.540558
12117.187500	-82.786522
12140.625000	-82.341179
12164.062500	-81.088867
12187.500000	-80.107887
12210.937500	-79.168327
12234.375000	-78.032120
12257.812500	-77.535126
12281.250000	-76.843056
12304.687500	-76.380074
12328.125000	-75.860809
12351.562500	-75.732063
12375.000000	-75.796715
12398.437500	-75.649704
12421.875000	-75.132019
12445.312500	-74.936630
12468.750000	-74.836998
12492.187500	-74.607048
12515.625000	-74.831070
12539.062500	-75.569298
12562.500000	-75.650383
12585.937500	-75.683083
12609.375000	-75.935631
12632.812500	-76.384766
12656.250000	-76.621017
12679.687500	-76.598518
12703.125000	-76.512573
12726.562500	-76.771988
12750.000000	-76.770668
12773.437500	-76.828918
12796.875000	-77.074837
12820.312500	-77.091408
12843.750000	-77.286629
12867.187500	-77.723152
12890.625000	-77.938049
12914.062500	-78.396011
12937.500000	-79.374367
12960.937500	-80.108955
12984.375000	-80.658592
13007.812500	-81.303734
13031.250000	-81.951752
13054.687500	-81.938515
13078.125000	-81.914307
13101.562500	-81.972946
13125.000000	-82.044426
13148.437500	-81.793442
13171.875000	-81.782951
13195.312500	-81.556602
13218.750000	-81.447723
13242.187500	-81.361481
13265.625000	-81.285934
13289.062500	-81.447685
13312.500000	-81.795876
13335.937500	-82.011047
13359.375000	-82.222000
13382.812500	-82.524902
13406.250000	-82.758728
13429.687500	-83.267296
13453.125000	-83.582893
13476.562500	-84.340935
13500.000000	-84.571388
13523.437500	-85.331367
13546.875000	-86.182480
13570.312500	-86.349174
13593.750000	-86.410721
13617.187500	-86.828789
13640.625000	-87.242599
13664.062500	-87.234009
13687.500000	-87.462532
13710.937500	-87.414803
13734.375000	-87.244354
13757.812500	-87.364197
13781.250000	-87.736603
13804.687500	-88.056000
13828.125000	-88.133781
13851.562500	-88.432968
13875.000000	-88.921066
13898.437500	-89.717804
13921.875000	-90.742584
13945.312500	-91.520988
13968.750000	-92.492439
13992.187500	-94.022034
14015.625000	-94.892632
14039.062500	-95.809029
14062.500000	-97.146873
14085.937500	-99.038696
14109.375000	-100.614731
14132.812500	-101.935989
14156.250000	-102.813499
14179.687500	-104.965042
14203.125000	-106.292038
14226.562500	-105.591316
14250.000000	-102.472313
14273.437500	-105.378716
14296.875000	-106.949020
14320.312500	-106.067596
14343.750000	-103.220398
14367.187500	-102.923607
14390.625000	-102.343544
14414.062500	-100.956490
14437.500000	-98.807671
14460.937500	-97.629150
14484.375000	-97.633499
14507.812500	-97.376732
14531.250000	-96.830116
14554.687500	-95.582802
14578.125000	-95.579063
14601.562500	-96.036667
14625.000000	-96.220802
14648.437500	-96.474144
14671.875000	-97.163101
14695.312500	-97.540764
14718.750000	-97.803726
14742.187500	-97.444016
14765.625000	-98.064552
14789.062500	-98.977196
14812.500000	-98.854195
14835.937500	-98.351631
14859.375000	-97.169548
14882.812500	-96.564034
14906.250000	-95.998795
14929.687500	-95.077354
14953.125000	-94.137505
14976.562500	-93.493958
15000.000000	-92.800797
15023.437500	-92.541283
15046.875000	-91.867401
15070.312500	-91.410149
15093.750000	-90.740982
15117.187500	-90.149559
15140.625000	-90.085052
15164.062500	-90.062393
15187.500000	-89.452209
15210.937500	-89.629150
15234.375000	-89.331657
15257.812500	-89.374573
15281.250000	-89.767578
15304.687500	-89.700096
15328.125000	-89.733543
15351.562500	-89.587929
15375.000000	-89.939751
15398.437500	-90.083473
15421.875000	-90.356483
15445.312500	-90.658989
15468.750000	-90.976738
15492.187500	-91.380714
15515.625000	-91.725189
15539.062500	-91.583420
15562.500000	-91.676216
15585.937500	-91.838539
15609.375000	-91.863457
15632.812500	-92.135925
15656.250000	-92.364296
15679.687500	-92.630249
15703.125000	-92.532387
15726.562500	-92.802246
15750.000000	-92.608414
15773.437500	-93.245033
15796.875000	-93.753227
15820.312500	-94.015305
15843.750000	-93.637192
15867.187500	-94.337654
15890.625000	-95.311264
15914.062500	-96.040169
15937.500000	-96.170906
15960.937500	-96.524292
15984.375000	-97.577858
16007.812500	-98.292351
16031.250000	-98.326126
16054.687500	-98.137917
16078.125000	-100.426384
16101.562500	-101.554840
16125.000000	-102.145622
16148.437500	-101.577492
16171.875000	-102.451180
16195.312500	-102.903763
16218.750000	-102.879395
16242.187500	-101.340828
16265.625000	-101.292488
16289.062500	-101.598755
16312.500000	-101.587593
16335.937500	-99.810432
16359.375000	-99.071236
16382.812500	-99.769829
16406.250000	-99.466553
16429.687500	-99.413979
16453.125000	-98.632622
16476.562500	-99.184975
16500.000000	-99.551407
16523.437500	-99.146240
16546.875000	-97.925354
16570.312500	-98.769485
16593.750000	-99.576706
16617.187500	-99.642181
16640.625000	-98.252922
16664.062500	-98.431541
16687.500000	-99.273438
16710.937500	-99.308197
16734.375000	-98.251236
16757.812500	-97.372917
16781.250000	-98.846130
16804.687500	-98.923386
16828.125000	-98.180420
16851.562500	-96.985573
16875.000000	-98.346230
16898.437500	-99.130600
16921.875000	-99.145462
16945.312500	-98.480217
16968.750000	-99.240509
16992.187500	-100.331100
17015.625000	-100.649559
17039.062500	-99.868889
17062.500000	-100.398567
17085.937500	-101.215599
17109.375000	-101.218018
17132.812500	-99.994102
17156.250000	-99.175835
17179.687500	-101.031929
17203.125000	-101.242699
17226.562500	-100.134109
17250.000000	-98.087578
17273.437500	-100.101570
17296.875000	-100.895821
17320.312500	-100.323586
17343.750000	-97.392967
17367.187500	-98.426262
17390.625000	-100.442795
17414.062500	-100.633858
17437.500000	-98.455109
17460.937500	-98.175674
17484.375000	-100.211517
17507.812500	-100.431824
17531.250000	-99.400146
17554.687500	-97.847801
17578.125000	-99.780670
17601.562500	-100.239014
17625.000000	-100.151215
17648.437500	-98.363602
17671.875000	-99.588058
17695.312500	-99.688278
17718.750000	-99.980202
17742.187500	-98.875465
17765.625000	-99.200905
17789.062500	-99.260437
17812.500000	-99.362526
17835.937500	-98.386757
17859.375000	-98.021461
17882.812500	-99.212318
17906.250000	-99.405457
17929.687500	-97.924171
17953.125000	-95.513107
17976.562500	-92.018005
18000.000000	-93.198051
18023.437500	-98.178413
18046.875000	-94.393028
18070.312500	-96.936150
18093.750000	-99.771744
18117.187500	-99.467247
18140.625000	-95.350273
18164.062500	-95.782036
18187.500000	-98.837852
18210.937500	-99.017395
18234.375000	-96.230103
18257.812500	-95.236275
18281.250000	-98.150482
18304.687500	-98.303268
18328.125000	-97.499596
18351.562500	-95.444435
18375.000000	-97.274963
18398.437500	-97.986649
18421.875000	-98.082382
18445.312500	-95.815132
18468.750000	-96.759865
18492.187500	-97.934631
18515.625000	-98.322472
18539.062500	-97.577904
18562.500000	-97.406448
18585.937500	-98.388519
18609.375000	-98.376389
18632.812500	-97.250244
18656.250000	-96.390839
18679.687500	-98.289230
18703.125000	-98.356728
18726.562500	-97.588493
18750.000000	-95.296242
18773.437500	-97.296463
18796.875000	-98.507790
18820.312500	-98.323730
18843.750000	-95.800346
18867.187500	-96.726593
18890.625000	-98.531815
18914.062500	-98.217827
18937.500000	-95.983078
18960.937500	-95.881691
18984.375000	-98.312531
19007.812500	-98.538017
19031.250000	-97.183189
19054.687500	-95.999878
19078.125000	-97.865669
19101.562500	-98.227852
19125.000000	-97.347893
19148.437500	-94.750587
19171.875000	-96.555809
19195.312500	-97.697128
19218.750000	-97.766289
19242.187500	-95.934952
19265.625000	-96.397278
19289.062500	-97.850296
19312.500000	-97.962029
19335.937500	-96.615181
19359.375000	-96.296959
19382.812500	-97.984138
19406.250000	-98.018860
19429.687500	-97.101021
19453.125000	-95.889114
19476.562500	-97.492973
19500.000000	-97.815567
19523.437500	-97.585220
19546.875000	-96.030777
19570.312500	-97.194298
19593.750000	-97.836189
19617.187500	-97.561058
19640.625000	-95.522179
19664.062500	-95.960876
19687.500000	-97.900917
19710.937500	-97.845650
19734.375000	-97.287094
19757.812500	-96.625610
19781.250000	-97.938538
19804.687500	-98.116241
19828.125000	-98.039299
19851.562500	-97.424026
19875.000000	-98.372734
19898.437500	-98.556854
19921.875000	-98.428291
19945.312500	-96.923325
19968.750000	-97.412308
19992.187500	-98.463882
20015.625000	-98.795334
20039.062500	-97.977211
20062.500000	-98.041275
20085.937500	-98.817703
20109.375000	-98.909836
20132.812500	-99.069664
20156.250000	-98.409958
20179.687500	-99.517868
20203.125000	-100.099602
20226.562500	-100.027534
20250.000000	-99.387978
20273.437500	-100.298370
20296.875000	-100.878822
20320.312500	-100.946655
20343.750000	-99.984390
20367.187500	-100.185471
20390.625000	-100.778122
20414.062500	-100.833160
20437.500000	-99.497704
20460.937500	-99.489838
20484.375000	-101.050560
20507.812500	-101.096222
20531.250000	-101.159843
20554.687500	-101.162621
20578.125000	-101.731880
20601.562500	-101.490372
20625.000000	-101.761147
20648.437500	-101.041977
20671.875000	-101.670036
20695.312500	-102.189980
20718.750000	-102.300217
20742.187500	-102.185570
20765.625000	-102.063904
20789.062500	-102.591682
20812.500000	-102.661308
20835.937500	-102.151863
20859.375000	-102.212280
20882.812500	-103.156998
20906.250000	-102.971664
20929.687500	-102.663124
20953.125000	-101.763893
20976.562500	-103.069992
21000.000000	-103.035751
21023.437500	-102.903046
21046.875000	-102.965729
21070.312500	-102.908211
21093.750000	-103.232162
21117.187500	-103.387077
21140.625000	-102.827904
21164.062500	-102.875656
21187.500000	-103.517754
21210.937500	-103.544113
21234.375000	-103.557182
21257.812500	-103.285049
21281.250000	-103.703651
21304.687500	-103.605461
21328.125000	-103.554306
21351.562500	-102.657295
21375.000000	-103.364983
21398.437500	-103.599319
21421.875000	-103.731331
21445.312500	-103.689217
21468.750000	-104.004311
21492.187500	-104.154373
21515.625000	-104.080452
21539.062500	-103.757713
21562.500000	-104.033966
21585.937500	-104.137871
21609.375000	-104.090240
21632.812500	-103.936996
21656.250000	-103.685875
21679.687500	-104.318588
21703.125000	-104.116127
21726.562500	-104.155624
21750.000000	-103.391296
21773.437500	-103.855034
21796.875000	-104.096878
21820.312500	-104.443550
21843.750000	-104.166832
21867.187500	-104.461235
21890.625000	-104.401077
21914.062500	-104.406334
21937.500000	-104.454758
21960.937500	-104.819595
21984.375000	-104.807312
22007.812500	-104.557465
22031.250000	-104.432060
22054.687500	-104.590477
22078.125000	-104.737617
22101.562500	-104.625206
22125.000000	-104.680084
22148.437500	-104.459946
22171.875000	-104.407661
22195.312500	-104.838844
22218.750000	-104.788048
22242.187500	-104.441299
22265.625000	-104.466255
22289.062500	-104.712868
22312.500000	-104.695709
22335.937500	-104.861031
22359.375000	-104.763962
22382.812500	-104.804787
22406.250000	-104.582031
22429.687500	-104.759613
22453.125000	-104.663567
22476.562500	-105.021019
22500.000000	-105.108749
22523.437500	-104.827736
22546.875000	-104.591705
22570.312500	-104.410683
22593.750000	-103.772919
22617.187500	-104.866028
22640.625000	-104.748810
22664.062500	-104.850754
22687.500000	-105.094719
22710.937500	-105.404640
22734.375000	-104.988152
22757.812500	-104.740631
22781.250000	-105.184349
22804.687500	-104.727516
22828.125000	-104.852409
22851.562500	-105.081192
22875.000000	-105.141075
22898.437500	-105.166748
22921.875000	-105.275497
22945.312500	-105.398399
22968.750000	-105.402695
22992.187500	-105.304825
23015.625000	-105.456612
23039.062500	-105.385117
23062.500000	-105.383369
23085.937500	-105.139725
23109.375000	-105.242859
23132.812500	-105.421211
23156.250000	-105.416656
23179.687500	-105.330040
23203.125000	-105.282036
23226.562500	-105.317123
23250.000000	-105.604958
23273.437500	-105.677475
23296.875000	-105.537949
23320.312500	-105.785469
23343.750000	-105.508728
23367.187500	-105.330696
23390.625000	-105.633087
23414.062500	-105.674530
23437.500000	-105.466415
23460.937500	-105.446762
23484.375000	-105.806358
23507.812500	-105.637299
23531.250000	-105.361717
23554.687500	-105.425858
23578.125000	-105.572266
23601.562500	-105.638443
23625.000000	-105.309357
23648.437500	-105.269073
23671.875000	-105.304283
23695.312500	-105.458244
23718.750000	-105.591011
23742.187500	-105.733681
23765.625000	-105.719788
23789.062500	-105.477547
23812.500000	-105.845711
23835.937500	-105.622070
23859.375000	-105.764580
23882.812500	-106.005058
23906.250000	-105.640259
23929.687500	-105.436005
23953.125000	-105.351456
23976.562500	-105.550018
