Frequency (Hz)	Level (dB)
23.437500	-54.213848
46.875000	-46.354057
70.312500	-50.618935
93.750000	-65.167732
117.187500	-66.803787
140.625000	-76.489738
164.062500	-79.754517
187.500000	-78.096252
210.937500	-77.297417
234.375000	-83.602097
257.812500	-83.073166
281.250000	-76.433212
304.687500	-72.988564
328.125000	-75.077187
351.562500	-70.700256
375.000000	-76.619720
398.437500	-78.942520
421.875000	-80.206841
445.312500	-73.742393
468.750000	-76.766212
492.187500	-85.540421
515.625000	-85.166672
539.062500	-84.283157
562.500000	-84.267807
585.937500	-86.830910
609.375000	-86.965355
632.812500	-80.473511
656.250000	-77.317184
679.687500	-85.486023
703.125000	-90.784447
726.562500	-89.657562
750.000000	-84.145515
773.437500	-88.084846
796.875000	-85.805588
820.312500	-88.902641
843.750000	-90.311462
867.187500	-90.065735
890.625000	-86.544388
914.062500	-86.581116
937.500000	-83.587326
960.937500	-82.623268
984.375000	-90.366577
1007.812500	-89.987617
1031.250000	-89.292656
1054.687500	-85.324547
1078.125000	-90.822563
1101.562500	-88.965485
1125.000000	-86.346909
1148.437500	-86.478462
1171.875000	-87.481972
1195.312500	-87.596626
1218.750000	-86.510582
1242.187500	-83.379387
1265.625000	-84.921654
1289.062500	-91.854103
1312.500000	-92.072411
1335.937500	-90.733322
1359.375000	-88.730736
1382.812500	-90.128418
1406.250000	-86.573868
1429.687500	-85.254532
1453.125000	-85.052757
1476.562500	-84.553879
1500.000000	-83.486542
1523.437500	-86.286201
1546.875000	-88.415115
1570.312500	-90.146599
1593.750000	-90.804771
1617.187500	-87.201317
1640.625000	-82.990456
1664.062500	-81.655861
1687.500000	-82.266960
1710.937500	-83.930595
1734.375000	-84.603813
1757.812500	-83.964241
1781.250000	-85.075806
1804.687500	-84.113113
1828.125000	-82.405136
1851.562500	-80.335922
1875.000000	-78.962845
1898.437500	-80.281624
1921.875000	-82.890671
1945.312500	-82.989410
1968.750000	-82.516266
1992.187500	-82.690178
2015.625000	-82.878220
2039.062500	-82.662186
2062.500000	-81.374512
2085.937500	-79.804932
2109.375000	-78.812202
2132.812500	-78.776482
2156.250000	-77.991425
2179.687500	-76.873291
2203.125000	-77.037895
2226.562500	-77.950417
2250.000000	-79.587555
2273.437500	-80.413261
2296.875000	-80.987633
2320.312500	-81.545387
2343.750000	-81.644691
2367.187500	-82.385139
2390.625000	-83.106026
2414.062500	-84.273743
2437.500000	-86.789482
2460.937500	-90.183884
2484.375000	-94.731209
2507.812500	-98.480515
2531.250000	-103.589081
2554.687500	-102.152176
2578.125000	-98.890816
2601.562500	-94.625923
2625.000000	-91.164436
2648.437500	-87.620514
2671.875000	-86.284363
2695.312500	-87.610420
2718.750000	-89.392136
2742.187500	-88.614326
2765.625000	-86.525459
2789.062500	-84.371735
2812.500000	-82.660118
2835.937500	-82.105339
2859.375000	-83.011856
2882.812500	-85.024803
2906.250000	-86.096489
2929.687500	-84.051613
2953.125000	-82.197182
2976.562500	-80.643463
3000.000000	-80.450966
3023.437500	-80.317726
3046.875000	-79.389542
3070.312500	-78.875740
3093.750000	-78.728867
3117.187500	-79.265610
3140.625000	-80.119041
3164.062500	-80.330849
3187.500000	-79.723061
3210.937500	-78.338615
3234.375000	-76.966148
3257.812500	-76.430756
3281.250000	-76.002029
3304.687500	-75.976425
3328.125000	-76.844810
3351.562500	-79.108353
3375.000000	-82.671860
3398.437500	-86.190208
3421.875000	-86.795059
3445.312500	-84.170380
3468.750000	-82.734428
3492.187500	-82.677544
3515.625000	-83.133728
3539.062500	-84.536331
3562.500000	-85.953400
3585.937500	-85.980171
3609.375000	-85.967072
3632.812500	-86.460556
3656.250000	-86.669167
3679.687500	-86.889648
3703.125000	-87.653152
3726.562500	-87.543396
3750.000000	-86.230339
3773.437500	-85.605263
3796.875000	-85.165642
3820.312500	-84.732834
3843.750000	-85.245773
3867.187500	-85.841942
3890.625000	-86.502121
3914.062500	-87.551163
3937.500000	-88.778732
3960.937500	-89.535072
3984.375000	-90.039757
4007.812500	-91.297012
4031.250000	-93.238831
4054.687500	-95.351349
4078.125000	-97.807503
4101.562500	-99.882187
4125.000000	-102.121208
4148.437500	-104.734848
4171.875000	-106.512360
4195.312500	-105.130905
4218.750000	-103.948952
4242.187500	-103.827507
4265.625000	-104.207100
4289.062500	-103.072708
4312.500000	-101.265457
4335.937500	-100.601151
4359.375000	-100.238312
4382.812500	-97.395325
4406.250000	-93.375854
4429.687500	-90.313683
4453.125000	-87.926689
4476.562500	-86.195946
4500.000000	-85.256935
4523.437500	-85.069489
4546.875000	-84.672226
4570.312500	-84.760468
4593.750000	-85.370293
4617.187500	-86.206970
4640.625000	-87.897911
4664.062500	-90.470833
4687.500000	-93.631599
4710.937500	-97.425507
4734.375000	-100.968803
4757.812500	-99.040543
4781.250000	-95.199432
4804.687500	-91.975845
4828.125000	-89.771896
4851.562500	-87.774010
4875.000000	-85.564934
4898.437500	-83.739922
4921.875000	-81.920479
4945.312500	-80.775513
4968.750000	-80.650070
4992.187500	-80.232872
5015.625000	-79.681892
5039.062500	-79.753494
5062.500000	-80.136543
5085.937500	-81.324623
5109.375000	-82.860565
5132.812500	-84.270378
5156.250000	-84.601089
5179.687500	-84.515907
5203.125000	-84.181206
5226.562500	-83.515381
5250.000000	-82.691444
5273.437500	-82.749733
5296.875000	-83.159195
5320.312500	-83.642738
5343.750000	-83.139954
5367.187500	-82.039017
5390.625000	-80.761436
5414.062500	-80.040794
5437.500000	-78.966179
5460.937500	-77.936050
5484.375000	-77.126625
5507.812500	-76.999870
5531.250000	-76.848381
5554.687500	-76.727943
5578.125000	-77.141022
5601.562500	-77.260834
5625.000000	-76.896286
5648.437500	-77.059402
5671.875000	-77.429543
5695.312500	-77.987083
5718.750000	-79.108116
5742.187500	-80.641983
5765.625000	-82.050270
5789.062500	-83.099243
5812.500000	-84.598030
5835.937500	-85.097847
5859.375000	-84.033394
5882.812500	-81.964844
5906.250000	-79.463089
5929.687500	-76.544502
5953.125000	-74.683884
5976.562500	-73.285851
6000.000000	-72.612221
6023.437500	-73.187683
6046.875000	-73.894783
6070.312500	-74.757919
6093.750000	-75.069557
6117.187500	-75.197945
6140.625000	-75.498886
6164.062500	-75.284546
6187.500000	-74.977066
6210.937500	-74.436729
6234.375000	-74.612854
6257.812500	-74.052696
6281.250000	-74.003746
6304.687500	-74.248489
6328.125000	-74.767235
6351.562500	-74.762688
6375.000000	-75.046799
6398.437500	-75.081238
6421.875000	-74.363129
6445.312500	-73.699043
6468.750000	-73.533821
6492.187500	-73.299927
6515.625000	-73.343124
6539.062500	-73.830307
6562.500000	-74.169228
6585.937500	-74.791168
6609.375000	-76.055244
6632.812500	-77.962425
6656.250000	-80.977173
6679.687500	-84.370155
6703.125000	-87.635567
6726.562500	-92.708054
6750.000000	-93.015556
6773.437500	-86.382637
6796.875000	-81.953728
6820.312500	-79.142441
6843.750000	-76.995071
6867.187500	-75.271698
6890.625000	-74.378448
6914.062500	-73.312851
6937.500000	-72.157707
6960.937500	-71.392578
6984.375000	-70.770348
7007.812500	-70.164734
7031.250000	-69.870575
7054.687500	-69.715813
7078.125000	-69.562706
7101.562500	-69.594521
7125.000000	-70.038795
7148.437500	-70.728821
7171.875000	-71.301697
7195.312500	-71.220016
7218.750000	-71.996506
7242.187500	-73.021034
7265.625000	-73.775238
7289.062500	-74.379890
7312.500000	-75.509064
7335.937500	-76.434700
7359.375000	-77.553574
7382.812500	-78.295334
7406.250000	-79.264351
7429.687500	-80.774925
7453.125000	-82.367233
7476.562500	-84.520058
7500.000000	-86.819412
7523.437500	-88.219864
7546.875000	-88.569206
7570.312500	-88.291100
7593.750000	-88.857033
7617.187500	-89.415298
7640.625000	-89.823921
7664.062500	-90.014435
7687.500000	-89.973106
7710.937500	-89.399612
7734.375000	-88.755211
7757.812500	-87.165443
7781.250000	-86.078201
7804.687500	-85.223412
7828.125000	-83.834656
7851.562500	-83.015594
7875.000000	-82.211670
7898.437500	-81.742020
7921.875000	-81.269104
7945.312500	-80.910248
7968.750000	-81.033272
7992.187500	-81.346519
8015.625000	-81.446495
8039.062500	-81.587868
8062.500000	-81.229370
8085.937500	-80.972282
8109.375000	-81.448616
8132.812500	-81.736252
8156.250000	-82.350243
8179.687500	-82.510696
8203.125000	-83.061676
8226.562500	-83.330612
8250.000000	-83.530663
8273.437500	-84.286285
8296.875000	-85.316849
8320.312500	-87.025352
8343.750000	-88.543816
8367.187500	-90.043877
8390.625000	-91.685196
8414.062500	-92.324371
8437.500000	-92.763634
8460.937500	-92.720688
8484.375000	-92.547646
8507.812500	-92.233276
8531.250000	-91.602913
8554.687500	-91.904686
8578.125000	-90.917114
8601.562500	-89.942215
8625.000000	-89.601395
8648.437500	-88.924446
8671.875000	-88.273552
8695.312500	-88.049370
8718.750000	-87.650368
8742.187500	-87.914360
8765.625000	-87.445869
8789.062500	-87.146515
8812.500000	-87.249054
8835.937500	-87.122704
8859.375000	-87.249123
8882.812500	-87.282043
8906.250000	-87.231125
8929.687500	-87.370056
8953.125000	-87.439926
8976.562500	-87.301300
9000.000000	-86.741928
9023.437500	-86.570488
9046.875000	-86.476715
9070.312500	-86.247498
9093.750000	-86.621834
9117.187500	-86.957397
9140.625000	-87.169144
9164.062500	-87.582222
9187.500000	-88.114601
9210.937500	-89.173042
9234.375000	-90.114288
9257.812500	-91.028015
9281.250000	-91.338783
9304.687500	-92.707329
9328.125000	-93.755348
9351.562500	-94.502121
9375.000000	-95.565979
9398.437500	-96.657066
9421.875000	-97.465294
9445.312500	-98.125458
9468.750000	-98.479492
9492.187500	-99.506310
9515.625000	-100.195908
9539.062500	-100.467873
9562.500000	-99.765388
9585.937500	-100.887115
9609.375000	-101.357353
9632.812500	-100.784439
9656.250000	-99.439224
9679.687500	-98.642578
9703.125000	-98.478607
9726.562500	-97.720695
9750.000000	-97.290543
9773.437500	-97.003464
9796.875000	-96.234604
9820.312500	-95.777542
9843.750000	-95.989761
9867.187500	-96.565346
9890.625000	-97.458076
9914.062500	-98.202080
9937.500000	-97.194794
9960.937500	-98.378616
9984.375000	-101.560173
10007.812500	-103.106705
10031.250000	-99.107300
10054.687500	-97.619720
10078.125000	-103.565926
10101.562500	-105.616714
10125.000000	-103.259918
10148.437500	-100.514885
10171.875000	-98.584351
10195.312500	-97.085220
10218.750000	-95.426956
10242.187500	-93.908485
10265.625000	-92.350754
10289.062500	-90.964592
10312.500000	-89.728363
10335.937500	-89.232460
10359.375000	-88.730469
10382.812500	-88.390663
10406.250000	-88.057304
10429.687500	-87.391083
10453.125000	-87.435509
10476.562500	-87.242386
10500.000000	-87.233803
10523.437500	-87.523758
10546.875000	-87.470535
10570.312500	-87.541374
10593.750000	-87.749016
10617.187500	-87.887131
10640.625000	-88.214561
10664.062500	-88.962074
10687.500000	-89.339722
10710.937500	-88.847847
10734.375000	-88.818527
10757.812500	-89.376999
10781.250000	-89.033783
10804.687500	-89.214790
10828.125000	-89.309822
10851.562500	-88.961205
10875.000000	-89.107841
10898.437500	-89.088860
10921.875000	-89.264709
10945.312500	-89.540154
10968.750000	-90.049492
10992.187500	-89.969269
11015.625000	-89.383957
11039.062500	-89.287392
11062.500000	-89.315605
11085.937500	-89.492203
11109.375000	-89.855652
11132.812500	-89.847229
11156.250000	-89.596939
11179.687500	-89.932678
11203.125000	-90.455261
11226.562500	-89.675140
11250.000000	-90.034470
11273.437500	-90.778763
11296.875000	-90.823013
11320.312500	-91.051086
11343.750000	-91.274719
11367.187500	-91.455231
11390.625000	-91.615829
11414.062500	-92.086601
11437.500000	-92.519905
11460.937500	-92.811958
11484.375000	-92.697899
11507.812500	-92.936989
11531.250000	-93.034325
11554.687500	-93.248299
11578.125000	-94.354683
11601.562500	-95.157745
11625.000000	-96.039413
11648.437500	-96.924248
11671.875000	-96.692596
11695.312500	-95.561600
11718.750000	-93.956345
11742.187500	-92.042229
11765.625000	-90.070473
11789.062500	-88.831360
11812.500000	-87.463814
11835.937500	-86.339005
11859.375000	-85.401360
11882.812500	-85.031128
11906.250000	-84.554466
11929.687500	-84.402473
11953.125000	-84.646919
11976.562500	-84.790993
12000.000000	-85.032875
12023.437500	-85.608368
12046.875000	-86.198776
12070.312500	-87.351997
12093.750000	-88.350273
12117.187500	-89.124588
12140.625000	-90.278587
12164.062500	-90.707512
12187.500000	-90.738884
12210.937500	-90.436348
12234.375000	-89.528442
12257.812500	-88.758911
12281.250000	-87.888824
12304.687500	-87.184189
12328.125000	-86.209694
12351.562500	-85.778358
12375.000000	-85.587021
12398.437500	-85.159340
12421.875000	-84.651024
12445.312500	-84.605621
12468.750000	-84.710381
12492.187500	-84.455994
12515.625000	-84.989265
12539.062500	-85.905792
12562.500000	-86.198830
12585.937500	-86.404625
12609.375000	-86.993675
12632.812500	-87.253777
12656.250000	-87.491631
12679.687500	-87.309433
12703.125000	-87.338448
12726.562500	-87.319443
12750.000000	-86.647964
12773.437500	-86.066986
12796.875000	-85.491150
12820.312500	-84.584435
12843.750000	-83.708008
12867.187500	-82.725967
12890.625000	-81.826614
12914.062500	-81.315048
12937.500000	-80.805344
12960.937500	-80.005791
12984.375000	-79.730522
13007.812500	-79.715141
13031.250000	-79.757828
13054.687500	-79.492859
13078.125000	-79.642860
13101.562500	-79.994942
13125.000000	-80.183105
13148.437500	-80.269302
13171.875000	-80.547096
13195.312500	-80.742905
13218.750000	-80.894051
13242.187500	-81.415344
13265.625000	-81.456169
13289.062500	-81.945068
13312.500000	-82.641487
13335.937500	-83.027817
13359.375000	-83.144379
13382.812500	-83.590012
13406.250000	-83.637161
13429.687500	-83.654205
13453.125000	-84.130066
13476.562500	-84.723038
13500.000000	-84.551819
13523.437500	-84.848282
13546.875000	-85.934525
13570.312500	-86.227303
13593.750000	-86.726730
13617.187500	-88.049561
13640.625000	-89.044106
13664.062500	-90.129860
13687.500000	-90.928146
13710.937500	-91.614883
13734.375000	-91.907532
13757.812500	-91.895737
13781.250000	-91.977188
13804.687500	-91.889992
13828.125000	-91.595032
13851.562500	-91.506119
13875.000000	-91.665520
13898.437500	-91.405968
13921.875000	-91.716568
13945.312500	-91.446053
13968.750000	-91.205269
13992.187500	-91.296555
14015.625000	-91.123230
14039.062500	-90.604500
14062.500000	-90.455452
14085.937500	-90.244514
14109.375000	-89.699905
14132.812500	-89.184418
14156.250000	-88.525848
14179.687500	-88.021416
14203.125000	-87.698547
14226.562500	-86.793503
14250.000000	-86.176926
14273.437500	-86.199318
14296.875000	-86.370308
14320.312500	-85.968399
14343.750000	-85.578629
14367.187500	-85.376381
14390.625000	-84.949059
14414.062500	-85.355171
14437.500000	-85.315018
14460.937500	-84.946938
14484.375000	-85.212189
14507.812500	-85.700691
14531.250000	-86.155876
14554.687500	-86.210831
14578.125000	-87.050270
14601.562500	-88.233948
14625.000000	-89.439232
14648.437500	-90.512024
14671.875000	-91.939468
14695.312500	-92.938019
14718.750000	-93.925171
14742.187500	-94.981621
14765.625000	-95.397331
14789.062500	-95.549179
14812.500000	-95.019730
14835.937500	-94.208290
14859.375000	-93.370308
14882.812500	-93.354736
14906.250000	-94.126617
14929.687500	-94.571434
14953.125000	-94.910454
14976.562500	-95.525124
15000.000000	-96.037468
15023.437500	-96.980186
15046.875000	-97.561905
15070.312500	-98.234894
15093.750000	-98.306473
15117.187500	-98.145454
15140.625000	-97.649437
15164.062500	-97.113037
15187.500000	-96.103516
15210.937500	-95.382988
15234.375000	-94.318581
15257.812500	-93.330467
15281.250000	-93.034248
15304.687500	-92.331238
15328.125000	-92.006737
15351.562500	-91.464043
15375.000000	-90.856911
15398.437500	-90.575981
15421.875000	-90.436951
15445.312500	-90.539230
15468.750000	-90.485558
15492.187500	-90.747276
15515.625000	-90.921959
15539.062500	-91.237144
15562.500000	-91.805779
15585.937500	-92.889771
15609.375000	-93.988106
15632.812500	-95.448730
15656.250000	-97.130714
15679.687500	-98.484436
15703.125000	-98.461884
15726.562500	-97.014954
15750.000000	-95.304848
15773.437500	-94.114456
15796.875000	-92.876205
15820.312500	-91.735870
15843.750000	-90.419083
15867.187500	-89.912979
15890.625000	-89.738640
15914.062500	-89.633469
15937.500000	-89.204086
15960.937500	-88.765724
15984.375000	-88.611137
16007.812500	-88.697906
16031.250000	-89.100006
16054.687500	-88.861649
16078.125000	-89.177742
16101.562500	-89.514526
16125.000000	-89.562317
16148.437500	-89.714279
16171.875000	-89.507660
16195.312500	-89.522026
16218.750000	-89.976875
16242.187500	-90.106346
16265.625000	-90.090439
16289.062500	-90.386230
16312.500000	-91.045364
16335.937500	-91.366074
16359.375000	-91.346588
16382.812500	-91.237022
16406.250000	-91.716698
16429.687500	-92.184082
16453.125000	-92.068794
16476.562500	-92.056900
16500.000000	-92.533218
16523.437500	-92.847549
16546.875000	-93.070915
16570.312500	-93.385208
16593.750000	-93.947281
16617.187500	-94.589630
16640.625000	-94.893082
16664.062500	-95.538490
16687.500000	-95.817711
16710.937500	-96.290619
16734.375000	-97.135544
16757.812500	-97.243713
16781.250000	-97.047859
16804.687500	-97.600754
16828.125000	-97.410019
16851.562500	-97.518524
16875.000000	-96.410782
16898.437500	-97.128632
16921.875000	-98.242012
16945.312500	-98.320671
16968.750000	-98.210953
16992.187500	-98.620033
17015.625000	-99.310432
17039.062500	-99.667351
17062.500000	-99.565468
17085.937500	-98.805969
17109.375000	-100.529984
17132.812500	-100.821785
17156.250000	-100.587944
17179.687500	-99.370827
17203.125000	-100.564072
17226.562500	-100.756165
17250.000000	-100.662628
17273.437500	-98.773636
17296.875000	-98.718071
17320.312500	-99.665222
17343.750000	-99.499458
17367.187500	-98.783516
17390.625000	-98.325005
17414.062500	-99.048737
17437.500000	-98.541199
17460.937500	-98.167625
17484.375000	-97.685448
17507.812500	-97.872528
17531.250000	-97.745468
17554.687500	-97.347557
17578.125000	-96.642090
17601.562500	-97.222343
17625.000000	-97.103996
17648.437500	-96.912415
17671.875000	-96.163193
17695.312500	-96.310722
17718.750000	-96.814163
17742.187500	-96.509216
17765.625000	-96.111023
17789.062500	-95.497810
17812.500000	-96.582710
17835.937500	-96.364655
17859.375000	-96.199020
17882.812500	-95.418999
17906.250000	-95.978752
17929.687500	-95.746925
17953.125000	-95.554482
17976.562500	-92.379051
18000.000000	-93.110397
18023.437500	-96.141701
18046.875000	-96.342178
18070.312500	-95.893936
18093.750000	-95.671524
18117.187500	-96.480751
18140.625000	-96.575912
18164.062500	-96.885254
18187.500000	-96.279846
18210.937500	-97.234276
18234.375000	-96.797981
18257.812500	-97.058784
18281.250000	-96.418388
18304.687500	-97.091431
18328.125000	-97.550278
18351.562500	-97.330742
18375.000000	-95.975487
18398.437500	-96.121361
18421.875000	-96.896339
18445.312500	-96.757584
18468.750000	-96.323486
18492.187500	-95.829597
18515.625000	-97.468819
18539.062500	-97.717049
18562.500000	-97.262138
18585.937500	-95.793633
18609.375000	-97.188164
18632.812500	-97.864960
18656.250000	-97.656487
18679.687500	-95.120689
18703.125000	-96.321793
18726.562500	-97.801216
18750.000000	-97.803215
18773.437500	-97.812561
18796.875000	-97.752953
18820.312500	-98.319466
18843.750000	-97.910835
18867.187500	-97.304054
18890.625000	-96.308838
18914.062500	-97.804588
18937.500000	-97.271606
18960.937500	-97.383888
18984.375000	-96.323662
19007.812500	-97.478699
19031.250000	-97.475487
19054.687500	-97.486923
19078.125000	-96.107864
19101.562500	-96.858459
19125.000000	-98.192780
19148.437500	-97.704544
19171.875000	-95.510033
19195.312500	-94.700081
19218.750000	-97.470284
19242.187500	-97.566612
19265.625000	-97.709663
19289.062500	-97.050911
19312.500000	-98.022766
19335.937500	-97.377953
19359.375000	-97.353088
19382.812500	-95.170815
19406.250000	-96.527077
19429.687500	-97.396599
19453.125000	-97.380867
19476.562500	-96.022621
19500.000000	-96.251869
19523.437500	-97.797798
19546.875000	-97.696396
19570.312500	-97.027428
19593.750000	-96.122749
19617.187500	-97.655006
19640.625000	-97.482681
19664.062500	-97.320328
19687.500000	-95.692802
19710.937500	-97.234947
19734.375000	-97.191635
19757.812500	-97.843575
19781.250000	-97.803123
19804.687500	-98.028358
19828.125000	-97.687943
19851.562500	-97.659126
19875.000000	-96.312775
19898.437500	-95.894684
19921.875000	-97.613792
19945.312500	-97.523071
19968.750000	-97.256546
19992.187500	-96.262451
20015.625000	-98.308281
20039.062500	-98.320999
20062.500000	-99.024460
20085.937500	-98.955162
20109.375000	-99.307137
20132.812500	-98.308548
20156.250000	-98.991005
20179.687500	-98.828835
20203.125000	-99.050331
20226.562500	-99.202789
20250.000000	-99.086960
20273.437500	-99.856987
20296.875000	-99.944672
20320.312500	-100.504570
20343.750000	-99.648933
20367.187500	-100.553825
20390.625000	-99.489777
20414.062500	-101.020332
20437.500000	-100.377266
20460.937500	-101.107468
20484.375000	-100.990829
20507.812500	-101.693596
20531.250000	-101.604080
20554.687500	-101.672829
20578.125000	-101.618530
20601.562500	-101.832161
20625.000000	-102.163597
20648.437500	-101.873192
20671.875000	-102.227547
20695.312500	-101.262154
20718.750000	-102.703117
20742.187500	-102.715881
20765.625000	-103.141266
20789.062500	-102.854027
20812.500000	-103.439377
20835.937500	-102.906288
20859.375000	-103.286812
20882.812500	-102.604156
20906.250000	-102.966911
20929.687500	-103.638336
20953.125000	-103.588531
20976.562500	-103.825272
21000.000000	-103.614395
21023.437500	-104.143829
21046.875000	-104.254105
21070.312500	-104.241486
21093.750000	-103.269806
21117.187500	-104.453064
21140.625000	-104.158348
21164.062500	-104.333000
21187.500000	-103.240181
21210.937500	-104.056847
21234.375000	-104.740242
21257.812500	-104.979652
21281.250000	-105.224411
21304.687500	-105.346710
21328.125000	-105.360733
21351.562500	-105.539619
21375.000000	-105.273636
21398.437500	-104.957283
21421.875000	-105.462250
21445.312500	-105.170959
21468.750000	-105.729721
21492.187500	-105.377777
21515.625000	-105.502419
21539.062500	-105.831253
21562.500000	-106.053024
21585.937500	-105.361458
21609.375000	-105.859970
21632.812500	-105.621544
21656.250000	-105.564743
21679.687500	-105.135414
21703.125000	-105.322861
21726.562500	-106.170258
21750.000000	-105.817886
21773.437500	-106.077805
21796.875000	-106.077911
21820.312500	-106.111374
21843.750000	-106.177719
21867.187500	-106.212730
21890.625000	-105.731133
21914.062500	-106.114090
21937.500000	-106.215317
21960.937500	-106.471596
21984.375000	-106.412933
22007.812500	-106.792953
22031.250000	-106.770821
22054.687500	-106.779160
22078.125000	-106.681976
22101.562500	-106.321800
22125.000000	-106.502457
22148.437500	-106.729256
22171.875000	-106.957664
22195.312500	-107.398972
22218.750000	-107.147896
22242.187500	-106.590385
22265.625000	-107.323013
22289.062500	-107.089996
22312.500000	-107.426697
22335.937500	-107.546844
22359.375000	-107.443634
22382.812500	-107.225731
22406.250000	-107.142616
22429.687500	-107.017654
22453.125000	-107.100533
22476.562500	-107.224716
22500.000000	-107.108444
22523.437500	-107.643608
22546.875000	-107.541191
22570.312500	-106.841393
22593.750000	-105.659950
22617.187500	-107.239182
22640.625000	-107.359398
22664.062500	-107.942284
22687.500000	-107.590469
22710.937500	-107.548706
22734.375000	-107.414925
22757.812500	-107.758369
22781.250000	-107.967117
22804.687500	-107.804420
22828.125000	-107.685730
22851.562500	-107.793793
22875.000000	-108.003929
22898.437500	-107.556396
22921.875000	-107.766502
22945.312500	-107.962631
22968.750000	-108.264458
22992.187500	-107.656792
23015.625000	-107.924149
23039.062500	-107.822502
23062.500000	-107.973503
23085.937500	-108.334229
23109.375000	-108.485252
23132.812500	-107.998833
23156.250000	-107.953941
23179.687500	-107.925705
23203.125000	-107.979660
23226.562500	-108.114319
23250.000000	-107.890823
23273.437500	-108.104225
23296.875000	-108.219711
23320.312500	-108.412956
23343.750000	-108.472404
23367.187500	-108.527397
23390.625000	-108.402115
23414.062500	-108.553467
23437.500000	-108.667122
23460.937500	-108.658806
23484.375000	-108.366196
23507.812500	-108.301231
23531.250000	-108.712906
23554.687500	-109.108810
23578.125000	-108.972069
23601.562500	-108.615479
23625.000000	-108.767746
23648.437500	-108.816154
23671.875000	-108.892754
23695.312500	-108.353683
23718.750000	-108.552307
23742.187500	-108.364777
23765.625000	-108.474365
23789.062500	-108.705650
23812.500000	-108.798897
23835.937500	-108.820137
23859.375000	-108.680847
23882.812500	-108.509232
23906.250000	-108.852470
23929.687500	-109.016121
23953.125000	-108.711281
23976.562500	-108.889633
