Frequency (Hz)	Level (dB)
23.437500	-53.105511
46.875000	-45.298267
70.312500	-49.599239
93.750000	-58.326332
117.187500	-59.113361
140.625000	-71.992424
164.062500	-75.141998
187.500000	-74.226166
210.937500	-77.538094
234.375000	-81.967239
257.812500	-79.943459
281.250000	-76.234177
304.687500	-72.951523
328.125000	-73.581161
351.562500	-69.597000
375.000000	-75.965988
398.437500	-78.636459
421.875000	-78.573799
445.312500	-72.871880
468.750000	-74.058281
492.187500	-76.656418
515.625000	-81.615509
539.062500	-82.241257
562.500000	-80.660477
585.937500	-80.506516
609.375000	-82.461227
632.812500	-74.736282
656.250000	-72.187943
679.687500	-81.778709
703.125000	-89.294449
726.562500	-85.227821
750.000000	-79.782509
773.437500	-85.194748
796.875000	-85.971573
820.312500	-89.215202
843.750000	-87.537323
867.187500	-89.613274
890.625000	-92.415665
914.062500	-88.938049
937.500000	-76.885933
960.937500	-75.999222
984.375000	-78.666451
1007.812500	-80.630836
1031.250000	-87.167915
1054.687500	-89.073196
1078.125000	-90.886391
1101.562500	-91.177155
1125.000000	-90.476173
1148.437500	-86.420181
1171.875000	-90.462395
1195.312500	-95.039368
1218.750000	-92.664284
1242.187500	-84.660767
1265.625000	-86.145737
1289.062500	-92.089104
1312.500000	-93.847313
1335.937500	-92.365257
1359.375000	-91.926994
1382.812500	-96.197159
1406.250000	-94.750977
1429.687500	-93.013901
1453.125000	-90.565781
1476.562500	-89.542221
1500.000000	-88.122688
1523.437500	-88.706932
1546.875000	-89.115913
1570.312500	-90.626198
1593.750000	-90.920128
1617.187500	-89.933044
1640.625000	-88.028503
1664.062500	-87.786270
1687.500000	-87.102692
1710.937500	-86.296486
1734.375000	-83.861580
1757.812500	-83.235878
1781.250000	-87.516968
1804.687500	-87.902809
1828.125000	-85.564117
1851.562500	-83.398422
1875.000000	-81.350258
1898.437500	-79.499527
1921.875000	-77.416931
1945.312500	-75.048683
1968.750000	-73.194466
1992.187500	-71.302490
2015.625000	-69.360245
2039.062500	-67.126678
2062.500000	-65.798019
2085.937500	-66.404762
2109.375000	-68.490608
2132.812500	-70.817772
2156.250000	-73.404633
2179.687500	-76.916687
2203.125000	-79.375542
2226.562500	-79.990593
2250.000000	-80.571121
2273.437500	-82.261864
2296.875000	-84.398651
2320.312500	-84.462723
2343.750000	-84.025574
2367.187500	-85.209579
2390.625000	-85.286812
2414.062500	-84.594482
2437.500000	-84.368385
2460.937500	-84.917999
2484.375000	-86.830391
2507.812500	-90.421516
2531.250000	-95.550049
2554.687500	-101.209312
2578.125000	-99.966232
2601.562500	-94.945938
2625.000000	-90.996521
2648.437500	-87.518776
2671.875000	-85.858673
2695.312500	-85.319572
2718.750000	-84.858383
2742.187500	-84.632881
2765.625000	-84.969711
2789.062500	-84.987404
2812.500000	-85.585907
2835.937500	-86.890076
2859.375000	-88.422241
2882.812500	-89.106354
2906.250000	-89.154068
2929.687500	-89.414833
2953.125000	-89.760437
2976.562500	-89.330597
3000.000000	-89.087700
3023.437500	-88.613838
3046.875000	-87.337349
3070.312500	-86.840363
3093.750000	-86.806000
3117.187500	-87.998680
3140.625000	-89.088043
3164.062500	-88.145256
3187.500000	-89.806694
3210.937500	-91.720833
3234.375000	-85.851631
3257.812500	-82.092461
3281.250000	-80.089561
3304.687500	-79.378700
3328.125000	-80.544922
3351.562500	-83.949837
3375.000000	-88.447815
3398.437500	-92.635803
3421.875000	-92.671097
3445.312500	-91.727386
3468.750000	-95.409409
3492.187500	-101.299187
3515.625000	-99.193596
3539.062500	-95.247566
3562.500000	-94.823639
3585.937500	-96.307236
3609.375000	-98.011162
3632.812500	-97.894341
3656.250000	-97.116669
3679.687500	-97.175026
3703.125000	-98.658714
3726.562500	-102.050728
3750.000000	-100.502052
3773.437500	-98.083763
3796.875000	-94.539658
3820.312500	-91.798157
3843.750000	-89.807251
3867.187500	-88.657631
3890.625000	-87.780167
3914.062500	-87.629112
3937.500000	-87.826508
3960.937500	-87.176476
3984.375000	-85.385406
4007.812500	-83.698273
4031.250000	-82.255341
4054.687500	-80.637932
4078.125000	-79.880424
4101.562500	-79.620491
4125.000000	-79.470078
4148.437500	-78.514702
4171.875000	-77.375114
4195.312500	-76.989220
4218.750000	-76.922173
4242.187500	-77.081055
4265.625000	-77.727264
4289.062500	-78.647911
4312.500000	-79.344261
4335.937500	-79.694145
4359.375000	-80.488403
4382.812500	-81.675720
4406.250000	-83.807533
4429.687500	-88.084511
4453.125000	-93.426895
4476.562500	-91.970665
4500.000000	-87.020607
4523.437500	-83.890045
4546.875000	-81.417076
4570.312500	-80.199524
4593.750000	-79.588486
4617.187500	-79.024132
4640.625000	-78.446861
4664.062500	-77.929619
4687.500000	-77.140656
4710.937500	-76.606010
4734.375000	-76.333313
4757.812500	-76.713936
4781.250000	-77.448853
4804.687500	-78.209099
4828.125000	-79.267975
4851.562500	-80.438034
4875.000000	-81.342033
4898.437500	-82.876808
4921.875000	-85.010559
4945.312500	-88.726311
4968.750000	-92.281487
4992.187500	-87.721352
5015.625000	-83.831543
5039.062500	-82.271713
5062.500000	-82.064377
5085.937500	-82.940430
5109.375000	-84.001289
5132.812500	-84.603561
5156.250000	-84.578972
5179.687500	-85.213890
5203.125000	-86.272888
5226.562500	-87.893951
5250.000000	-88.946304
5273.437500	-89.078888
5296.875000	-87.053192
5320.312500	-85.104347
5343.750000	-83.428917
5367.187500	-82.219749
5390.625000	-81.409851
5414.062500	-81.583382
5437.500000	-82.386345
5460.937500	-83.770927
5484.375000	-84.543983
5507.812500	-83.678528
5531.250000	-81.943169
5554.687500	-80.512100
5578.125000	-79.968117
5601.562500	-79.344231
5625.000000	-78.270241
5648.437500	-77.703011
5671.875000	-76.854828
5695.312500	-75.151863
5718.750000	-73.245071
5742.187500	-71.168304
5765.625000	-69.585335
5789.062500	-68.485352
5812.500000	-68.426773
5835.937500	-69.048615
5859.375000	-70.044418
5882.812500	-71.102219
5906.250000	-71.657684
5929.687500	-70.994118
5953.125000	-70.993919
5976.562500	-70.637711
6000.000000	-69.601479
6023.437500	-68.743752
6046.875000	-67.488716
6070.312500	-66.461563
6093.750000	-65.322174
6117.187500	-64.459724
6140.625000	-63.806805
6164.062500	-63.125668
6187.500000	-62.657555
6210.937500	-62.212360
6234.375000	-62.915264
6257.812500	-63.128922
6281.250000	-63.675987
6304.687500	-64.613914
6328.125000	-65.746140
6351.562500	-66.699394
6375.000000	-68.295769
6398.437500	-70.182610
6421.875000	-71.191345
6445.312500	-71.096016
6468.750000	-70.023323
6492.187500	-68.287621
6515.625000	-66.955833
6539.062500	-66.306717
6562.500000	-65.688637
6585.937500	-65.594910
6609.375000	-66.102425
6632.812500	-67.146210
6656.250000	-68.751457
6679.687500	-69.630608
6703.125000	-68.839569
6726.562500	-68.592941
6750.000000	-68.839417
6773.437500	-68.979355
6796.875000	-69.804291
6820.312500	-70.495636
6843.750000	-71.109024
6867.187500	-71.233376
6890.625000	-71.788116
6914.062500	-71.952354
6937.500000	-72.086441
6960.937500	-72.610077
6984.375000	-73.540443
7007.812500	-74.271378
7031.250000	-75.149933
7054.687500	-75.864082
7078.125000	-76.489799
7101.562500	-76.993248
7125.000000	-77.639641
7148.437500	-78.370415
7171.875000	-78.596825
7195.312500	-77.963562
7218.750000	-77.933662
7242.187500	-77.937691
7265.625000	-77.589378
7289.062500	-76.776733
7312.500000	-76.116043
7335.937500	-75.093758
7359.375000	-74.536674
7382.812500	-73.495651
7406.250000	-72.579643
7429.687500	-72.086922
7453.125000	-71.699471
7476.562500	-72.057190
7500.000000	-72.861694
7523.437500	-73.568405
7546.875000	-74.579140
7570.312500	-75.399841
7593.750000	-76.814827
7617.187500	-77.635109
7640.625000	-78.063049
7664.062500	-78.560829
7687.500000	-79.561829
7710.937500	-80.705956
7734.375000	-82.349777
7757.812500	-83.964127
7781.250000	-85.913719
7804.687500	-88.372498
7828.125000	-90.288109
7851.562500	-92.166565
7875.000000	-94.399727
7898.437500	-97.099487
7921.875000	-99.166946
7945.312500	-98.904289
7968.750000	-98.168961
7992.187500	-97.565094
8015.625000	-96.642502
8039.062500	-94.802528
8062.500000	-92.571671
8085.937500	-91.087151
8109.375000	-90.504219
8132.812500	-90.140938
8156.250000	-90.752319
8179.687500	-91.623825
8203.125000	-93.068939
8226.562500	-94.252075
8250.000000	-94.809486
8273.437500	-95.572212
8296.875000	-96.391174
8320.312500	-98.062950
8343.750000	-99.731445
8367.187500	-101.051697
8390.625000	-99.999519
8414.062500	-97.655891
8437.500000	-95.604317
8460.937500	-93.971336
8484.375000	-92.732597
8507.812500	-91.552895
8531.250000	-90.234009
8554.687500	-90.319603
8578.125000	-89.721367
8601.562500	-89.238243
8625.000000	-89.230927
8648.437500	-88.550552
8671.875000	-87.604530
8695.312500	-86.875015
8718.750000	-86.076042
8742.187500	-85.940811
8765.625000	-85.110207
8789.062500	-84.633728
8812.500000	-84.700020
8835.937500	-84.740372
8859.375000	-85.037498
8882.812500	-85.383713
8906.250000	-85.719627
8929.687500	-86.179756
8953.125000	-86.704163
8976.562500	-87.048988
9000.000000	-87.038292
9023.437500	-87.471649
9046.875000	-87.816620
9070.312500	-87.912537
9093.750000	-88.521225
9117.187500	-89.010551
9140.625000	-89.269470
9164.062500	-89.946663
9187.500000	-90.489479
9210.937500	-91.514046
9234.375000	-92.316483
9257.812500	-92.941734
9281.250000	-93.086983
9304.687500	-94.239449
9328.125000	-95.016388
9351.562500	-95.455559
9375.000000	-96.430473
9398.437500	-96.446037
9421.875000	-96.096519
9445.312500	-95.281525
9468.750000	-94.526245
9492.187500	-93.759064
9515.625000	-92.805756
9539.062500	-91.842651
9562.500000	-91.272682
9585.937500	-90.827156
9609.375000	-90.089043
9632.812500	-89.869011
9656.250000	-89.360306
9679.687500	-89.545731
9703.125000	-90.023033
9726.562500	-90.017456
9750.000000	-89.831665
9773.437500	-89.436195
9796.875000	-88.805397
9820.312500	-88.315155
9843.750000	-88.549515
9867.187500	-89.014534
9890.625000	-89.325920
9914.062500	-89.773537
9937.500000	-89.525841
9960.937500	-89.810135
9984.375000	-90.500710
10007.812500	-91.255562
10031.250000	-92.457962
10054.687500	-93.737694
10078.125000	-95.360077
10101.562500	-97.184395
10125.000000	-98.524818
10148.437500	-98.489349
10171.875000	-99.581947
10195.312500	-99.441994
10218.750000	-98.669151
10242.187500	-97.613632
10265.625000	-96.661140
10289.062500	-95.738068
10312.500000	-95.010300
10335.937500	-94.795296
10359.375000	-94.451744
10382.812500	-93.957054
10406.250000	-93.145958
10429.687500	-91.973274
10453.125000	-91.367683
10476.562500	-90.303528
10500.000000	-89.487305
10523.437500	-88.858498
10546.875000	-87.747391
10570.312500	-86.869186
10593.750000	-86.006561
10617.187500	-85.169373
10640.625000	-84.606918
10664.062500	-84.516846
10687.500000	-84.024879
10710.937500	-83.030029
10734.375000	-82.665199
10757.812500	-82.933273
10781.250000	-82.587112
10804.687500	-82.886139
10828.125000	-83.221741
10851.562500	-83.109047
10875.000000	-83.474670
10898.437500	-83.407509
10921.875000	-83.611984
10945.312500	-83.796844
10968.750000	-84.090889
10992.187500	-83.861946
11015.625000	-83.300308
11039.062500	-83.171982
11062.500000	-83.268608
11085.937500	-83.265274
11109.375000	-83.404541
11132.812500	-83.369324
11156.250000	-83.286316
11179.687500	-83.623398
11203.125000	-84.071602
11226.562500	-83.393082
11250.000000	-83.709587
11273.437500	-84.334625
11296.875000	-84.361687
11320.312500	-84.602684
11343.750000	-84.835007
11367.187500	-85.180923
11390.625000	-85.327400
11414.062500	-85.956955
11437.500000	-86.686150
11460.937500	-87.427788
11484.375000	-87.814232
11507.812500	-88.583595
11531.250000	-89.248924
11554.687500	-89.527405
11578.125000	-90.230461
11601.562500	-89.828445
11625.000000	-88.956909
11648.437500	-87.878448
11671.875000	-86.859192
11695.312500	-85.806725
11718.750000	-85.345551
11742.187500	-84.904694
11765.625000	-84.349655
11789.062500	-84.450409
11812.500000	-84.183342
11835.937500	-84.208702
11859.375000	-84.524185
11882.812500	-85.368713
11906.250000	-85.894463
11929.687500	-86.578011
11953.125000	-86.995453
11976.562500	-86.370819
12000.000000	-85.005913
12023.437500	-83.553062
12046.875000	-82.070412
12070.312500	-81.371437
12093.750000	-80.145554
12117.187500	-78.997292
12140.625000	-78.433800
12164.062500	-77.654472
12187.500000	-77.116524
12210.937500	-76.659836
12234.375000	-76.457565
12257.812500	-76.486542
12281.250000	-76.639969
12304.687500	-76.918396
12328.125000	-76.898529
12351.562500	-77.288429
12375.000000	-78.006241
12398.437500	-78.654465
12421.875000	-79.105392
12445.312500	-79.950325
12468.750000	-80.862320
12492.187500	-81.378922
12515.625000	-82.525558
12539.062500	-83.832695
12562.500000	-84.224976
12585.937500	-84.233307
12609.375000	-84.539505
12632.812500	-84.411072
12656.250000	-84.126274
12679.687500	-83.278793
12703.125000	-82.754967
12726.562500	-82.440376
12750.000000	-81.706177
12773.437500	-81.281883
12796.875000	-81.007393
12820.312500	-80.765442
12843.750000	-80.778015
12867.187500	-80.697731
12890.625000	-80.721489
12914.062500	-81.109528
12937.500000	-81.335526
12960.937500	-81.182693
12984.375000	-81.238762
13007.812500	-81.251549
13031.250000	-81.314713
13054.687500	-81.059135
13078.125000	-80.953804
13101.562500	-80.805763
13125.000000	-80.345123
13148.437500	-79.872490
13171.875000	-79.627396
13195.312500	-79.311600
13218.750000	-79.045326
13242.187500	-79.294991
13265.625000	-79.112900
13289.062500	-79.327209
13312.500000	-79.777168
13335.937500	-80.045120
13359.375000	-80.130272
13382.812500	-80.633553
13406.250000	-80.771294
13429.687500	-81.059792
13453.125000	-81.908798
13476.562500	-82.831177
13500.000000	-83.150383
13523.437500	-83.901131
13546.875000	-85.476173
13570.312500	-86.159988
13593.750000	-86.725609
13617.187500	-87.889816
13640.625000	-88.571205
13664.062500	-88.979591
13687.500000	-88.870583
13710.937500	-88.568245
13734.375000	-88.097260
13757.812500	-87.842430
13781.250000	-87.727119
13804.687500	-87.599739
13828.125000	-87.228783
13851.562500	-87.201401
13875.000000	-87.532356
13898.437500	-87.479897
13921.875000	-88.543732
13945.312500	-88.812202
13968.750000	-89.110268
13992.187500	-89.362366
14015.625000	-89.314278
14039.062500	-88.888924
14062.500000	-88.927963
14085.937500	-88.739761
14109.375000	-88.063705
14132.812500	-87.368690
14156.250000	-86.564445
14179.687500	-85.947800
14203.125000	-85.377022
14226.562500	-84.341850
14250.000000	-83.661301
14273.437500	-83.723381
14296.875000	-83.866089
14320.312500	-83.426964
14343.750000	-83.059204
14367.187500	-82.927246
14390.625000	-82.825790
14414.062500	-83.668304
14437.500000	-83.994568
14460.937500	-84.014885
14484.375000	-84.875374
14507.812500	-85.970848
14531.250000	-86.927444
14554.687500	-87.339500
14578.125000	-88.119316
14601.562500	-88.768394
14625.000000	-89.157089
14648.437500	-89.270134
14671.875000	-89.223824
14695.312500	-88.421730
14718.750000	-87.931343
14742.187500	-87.834358
14765.625000	-87.705360
14789.062500	-88.256615
14812.500000	-88.737267
14835.937500	-88.937386
14859.375000	-89.096886
14882.812500	-89.794266
14906.250000	-90.832451
14929.687500	-91.916389
14953.125000	-92.764107
14976.562500	-93.575623
15000.000000	-93.552788
15023.437500	-93.508003
15046.875000	-92.637589
15070.312500	-92.550301
15093.750000	-91.669014
15117.187500	-91.219597
15140.625000	-90.935974
15164.062500	-90.904976
15187.500000	-90.499603
15210.937500	-90.441307
15234.375000	-90.249817
15257.812500	-90.211540
15281.250000	-90.890984
15304.687500	-90.854019
15328.125000	-90.918816
15351.562500	-90.840439
15375.000000	-90.903862
15398.437500	-90.886948
15421.875000	-90.881226
15445.312500	-90.812416
15468.750000	-90.793587
15492.187500	-90.964447
15515.625000	-90.833496
15539.062500	-91.063004
15562.500000	-91.007835
15585.937500	-91.221893
15609.375000	-91.056938
15632.812500	-91.238647
15656.250000	-91.654350
15679.687500	-92.023415
15703.125000	-92.121429
15726.562500	-92.266685
15750.000000	-92.173561
15773.437500	-92.583405
15796.875000	-92.678429
15820.312500	-92.744354
15843.750000	-92.116119
15867.187500	-92.437241
15890.625000	-92.735367
15914.062500	-92.809845
15937.500000	-92.566040
15960.937500	-92.208046
15984.375000	-92.038605
16007.812500	-91.924362
16031.250000	-92.082428
16054.687500	-91.794075
16078.125000	-92.365013
16101.562500	-92.802521
16125.000000	-92.913322
16148.437500	-93.173470
16171.875000	-93.545532
16195.312500	-94.023384
16218.750000	-95.176231
16242.187500	-95.941063
16265.625000	-96.927063
16289.062500	-98.156876
16312.500000	-99.885452
16335.937500	-100.698563
16359.375000	-101.962036
16382.812500	-104.359413
16406.250000	-104.837151
16429.687500	-103.748993
16453.125000	-101.751579
16476.562500	-100.945793
16500.000000	-99.712738
16523.437500	-98.732567
16546.875000	-97.615623
16570.312500	-97.339767
16593.750000	-96.872345
16617.187500	-96.357269
16640.625000	-95.570671
16664.062500	-95.672081
16687.500000	-95.668991
16710.937500	-95.618408
16734.375000	-95.822411
16757.812500	-95.402336
16781.250000	-95.489922
16804.687500	-95.626961
16828.125000	-95.079735
16851.562500	-94.950363
16875.000000	-95.043648
16898.437500	-95.433098
16921.875000	-95.662064
16945.312500	-95.055656
16968.750000	-95.042046
16992.187500	-94.928375
17015.625000	-94.495277
17039.062500	-93.955978
17062.500000	-94.426933
17085.937500	-94.497955
17109.375000	-94.067192
17132.812500	-93.956573
17156.250000	-93.603775
17179.687500	-93.692886
17203.125000	-93.554970
17226.562500	-93.528793
17250.000000	-93.997490
17273.437500	-94.026810
17296.875000	-93.820168
17320.312500	-93.790421
17343.750000	-93.850761
17367.187500	-93.814384
17390.625000	-93.745789
17414.062500	-94.000916
17437.500000	-93.894760
17460.937500	-93.534103
17484.375000	-93.435303
17507.812500	-93.640320
17531.250000	-93.745056
17554.687500	-93.298096
17578.125000	-93.316544
17601.562500	-93.605927
17625.000000	-93.514030
17648.437500	-93.469536
17671.875000	-93.782768
17695.312500	-93.951645
17718.750000	-94.282921
17742.187500	-94.012909
17765.625000	-94.774406
17789.062500	-94.838211
17812.500000	-95.102295
17835.937500	-95.037270
17859.375000	-95.422386
17882.812500	-95.976494
17906.250000	-96.178627
17929.687500	-96.024277
17953.125000	-95.861176
17976.562500	-92.789101
18000.000000	-93.729233
18023.437500	-98.268112
18046.875000	-97.684753
18070.312500	-99.111588
18093.750000	-99.796440
18117.187500	-99.921196
18140.625000	-98.476570
18164.062500	-99.164650
18187.500000	-99.925346
18210.937500	-100.281410
18234.375000	-98.982254
18257.812500	-98.864883
18281.250000	-99.899673
18304.687500	-100.002411
18328.125000	-99.437981
18351.562500	-98.276871
18375.000000	-99.462082
18398.437500	-99.530174
18421.875000	-99.447472
18445.312500	-97.860718
18468.750000	-99.042572
18492.187500	-99.570152
18515.625000	-99.875771
18539.062500	-98.178802
18562.500000	-98.615463
18585.937500	-99.459702
18609.375000	-99.602768
18632.812500	-98.221008
18656.250000	-97.873596
18679.687500	-99.489754
18703.125000	-99.560219
18726.562500	-98.806503
18750.000000	-97.466408
18773.437500	-99.495842
18796.875000	-99.806580
18820.312500	-99.573067
18843.750000	-97.281548
18867.187500	-99.015862
18890.625000	-99.867851
18914.062500	-100.029083
18937.500000	-97.884071
18960.937500	-98.530128
18984.375000	-100.097076
19007.812500	-100.163429
19031.250000	-98.999687
19054.687500	-98.337425
19078.125000	-99.955963
19101.562500	-99.769814
19125.000000	-98.880402
19148.437500	-97.051247
19171.875000	-99.256409
19195.312500	-99.562744
19218.750000	-99.361679
19242.187500	-97.201881
19265.625000	-98.646858
19289.062500	-99.422462
19312.500000	-99.693604
19335.937500	-97.950890
19359.375000	-97.935555
19382.812500	-98.301521
19406.250000	-97.547813
19429.687500	-97.927544
19453.125000	-97.235794
19476.562500	-98.673813
19500.000000	-97.486824
19523.437500	-98.571709
19546.875000	-97.620430
19570.312500	-99.113808
19593.750000	-99.481697
19617.187500	-99.475731
19640.625000	-97.819366
19664.062500	-98.778595
19687.500000	-98.156517
19710.937500	-98.175652
19734.375000	-98.033745
19757.812500	-97.893356
19781.250000	-98.651054
19804.687500	-98.316978
19828.125000	-98.716133
19851.562500	-98.299416
19875.000000	-99.458168
19898.437500	-99.091400
19921.875000	-99.117508
19945.312500	-97.620880
19968.750000	-99.364548
19992.187500	-98.998146
20015.625000	-99.285576
20039.062500	-98.676796
20062.500000	-99.309715
20085.937500	-99.380997
20109.375000	-99.122169
20132.812500	-98.884460
20156.250000	-98.860802
20179.687500	-99.941452
20203.125000	-99.828247
20226.562500	-99.815727
20250.000000	-98.975609
20273.437500	-100.481308
20296.875000	-100.498039
20320.312500	-100.522781
20343.750000	-99.627937
20367.187500	-100.370499
20390.625000	-100.878242
20414.062500	-101.081406
20437.500000	-100.003563
20460.937500	-100.439148
20484.375000	-101.344124
20507.812500	-101.351196
20531.250000	-101.182014
20554.687500	-101.161362
20578.125000	-101.690582
20601.562500	-101.540123
20625.000000	-101.863678
20648.437500	-101.250450
20671.875000	-102.519875
20695.312500	-102.655853
20718.750000	-102.758354
20742.187500	-102.264175
20765.625000	-102.355385
20789.062500	-102.708466
20812.500000	-102.942673
20835.937500	-102.274757
20859.375000	-102.675636
20882.812500	-103.248062
20906.250000	-103.400955
20929.687500	-102.962349
20953.125000	-102.584778
20976.562500	-103.612335
21000.000000	-103.476715
21023.437500	-103.391167
21046.875000	-103.356239
21070.312500	-103.848740
21093.750000	-103.425125
21117.187500	-103.647720
21140.625000	-103.615616
21164.062500	-103.943901
21187.500000	-104.267624
21210.937500	-104.321114
21234.375000	-103.918144
21257.812500	-104.226036
21281.250000	-104.343857
21304.687500	-104.564896
21328.125000	-104.637032
21351.562500	-104.186859
21375.000000	-104.800056
21398.437500	-104.860390
21421.875000	-104.756195
21445.312500	-104.313194
21468.750000	-104.877968
21492.187500	-105.080307
21515.625000	-105.211617
21539.062500	-104.959953
21562.500000	-105.100677
21585.937500	-105.031860
21609.375000	-105.321503
21632.812500	-105.242889
21656.250000	-105.342888
21679.687500	-105.532875
21703.125000	-105.146591
21726.562500	-105.180077
21750.000000	-104.931274
21773.437500	-105.441330
21796.875000	-105.390205
21820.312500	-105.535904
21843.750000	-105.223076
21867.187500	-105.431084
21890.625000	-105.568001
21914.062500	-105.785645
21937.500000	-105.504898
21960.937500	-105.605873
21984.375000	-105.850555
22007.812500	-105.949730
22031.250000	-105.758118
22054.687500	-105.726540
22078.125000	-105.953415
22101.562500	-105.749481
22125.000000	-105.791481
22148.437500	-105.588127
22171.875000	-105.810898
22195.312500	-105.839989
22218.750000	-105.719841
22242.187500	-105.983917
22265.625000	-105.962387
22289.062500	-105.739014
22312.500000	-105.739769
22335.937500	-105.768394
22359.375000	-105.920441
22382.812500	-105.763840
22406.250000	-105.740463
22429.687500	-105.901550
22453.125000	-105.835648
22476.562500	-106.138916
22500.000000	-105.954468
22523.437500	-105.761703
22546.875000	-106.139450
22570.312500	-105.957611
22593.750000	-104.708572
22617.187500	-105.712967
22640.625000	-105.716988
22664.062500	-106.043114
22687.500000	-106.218185
22710.937500	-106.299858
22734.375000	-105.984680
22757.812500	-106.122643
22781.250000	-106.297401
22804.687500	-106.339897
22828.125000	-106.441185
22851.562500	-106.403931
22875.000000	-106.441696
22898.437500	-106.401863
22921.875000	-106.549507
22945.312500	-106.292831
22968.750000	-106.445129
22992.187500	-106.264229
23015.625000	-106.346588
23039.062500	-106.571938
23062.500000	-106.726433
23085.937500	-106.529671
23109.375000	-106.633347
23132.812500	-106.375481
23156.250000	-106.515747
23179.687500	-106.410446
23203.125000	-106.275734
23226.562500	-106.304039
23250.000000	-106.511581
23273.437500	-106.833435
23296.875000	-106.475616
23320.312500	-106.685059
23343.750000	-106.835526
23367.187500	-106.879333
23390.625000	-106.772636
23414.062500	-107.003540
23437.500000	-107.044044
23460.937500	-107.011063
23484.375000	-106.921402
23507.812500	-106.844673
23531.250000	-106.999153
23554.687500	-106.938263
23578.125000	-107.176262
23601.562500	-106.920685
23625.000000	-106.808990
23648.437500	-106.831779
23671.875000	-107.026306
23695.312500	-106.890831
23718.750000	-106.618629
23742.187500	-106.732613
23765.625000	-106.900352
23789.062500	-106.583435
23812.500000	-106.487282
23835.937500	-106.614067
23859.375000	-106.536903
23882.812500	-106.598846
23906.250000	-106.542778
23929.687500	-106.515511
23953.125000	-106.596153
23976.562500	-106.869339
