Frequency (Hz)	Level (dB)
23.437500	-52.076870
46.875000	-44.273193
70.312500	-48.601128
93.750000	-65.235115
117.187500	-67.944374
140.625000	-75.727951
164.062500	-78.034508
187.500000	-78.270401
210.937500	-77.877434
234.375000	-79.887047
257.812500	-75.378563
281.250000	-73.512077
304.687500	-72.077599
328.125000	-72.865105
351.562500	-68.465660
375.000000	-74.607971
398.437500	-78.705353
421.875000	-79.034790
445.312500	-72.425644
468.750000	-75.829094
492.187500	-84.232964
515.625000	-86.069046
539.062500	-83.606606
562.500000	-83.954506
585.937500	-86.544014
609.375000	-85.309387
632.812500	-73.341042
656.250000	-70.733032
679.687500	-80.286919
703.125000	-89.128868
726.562500	-82.638229
750.000000	-76.915222
773.437500	-82.193703
796.875000	-84.015427
820.312500	-87.324341
843.750000	-86.375175
867.187500	-88.012978
890.625000	-88.254135
914.062500	-82.241333
937.500000	-74.612350
960.937500	-74.814621
984.375000	-84.875488
1007.812500	-87.055733
1031.250000	-90.128845
1054.687500	-89.915085
1078.125000	-92.711823
1101.562500	-92.608833
1125.000000	-88.989525
1148.437500	-83.935120
1171.875000	-87.757256
1195.312500	-90.161171
1218.750000	-88.123871
1242.187500	-83.057793
1265.625000	-85.047287
1289.062500	-90.895988
1312.500000	-92.107079
1335.937500	-90.628014
1359.375000	-88.529419
1382.812500	-86.565552
1406.250000	-83.687981
1429.687500	-85.833427
1453.125000	-89.187271
1476.562500	-92.444473
1500.000000	-91.623993
1523.437500	-91.948296
1546.875000	-87.647552
1570.312500	-90.614952
1593.750000	-93.475311
1617.187500	-93.679253
1640.625000	-91.219093
1664.062500	-91.751404
1687.500000	-92.044334
1710.937500	-90.942604
1734.375000	-88.325775
1757.812500	-87.488602
1781.250000	-92.202728
1804.687500	-94.049408
1828.125000	-96.352730
1851.562500	-96.300140
1875.000000	-97.347054
1898.437500	-96.513222
1921.875000	-94.456696
1945.312500	-89.526894
1968.750000	-88.335136
1992.187500	-88.689323
2015.625000	-89.452034
2039.062500	-85.262589
2062.500000	-83.229927
2085.937500	-84.346420
2109.375000	-86.143654
2132.812500	-88.139832
2156.250000	-89.683655
2179.687500	-90.789146
2203.125000	-91.922745
2226.562500	-92.968079
2250.000000	-93.052872
2273.437500	-91.608421
2296.875000	-90.013092
2320.312500	-90.157570
2343.750000	-90.783173
2367.187500	-93.888702
2390.625000	-97.234947
2414.062500	-98.596581
2437.500000	-93.338394
2460.937500	-89.020592
2484.375000	-87.606110
2507.812500	-87.947044
2531.250000	-89.533669
2554.687500	-91.311996
2578.125000	-92.587830
2601.562500	-93.364777
2625.000000	-94.761650
2648.437500	-95.650581
2671.875000	-97.932175
2695.312500	-98.888245
2718.750000	-99.558586
2742.187500	-98.320862
2765.625000	-98.588348
2789.062500	-98.168701
2812.500000	-98.078964
2835.937500	-97.740105
2859.375000	-97.467941
2882.812500	-97.860710
2906.250000	-97.613159
2929.687500	-98.321808
2953.125000	-97.856483
2976.562500	-96.658897
3000.000000	-96.512299
3023.437500	-97.097656
3046.875000	-96.364174
3070.312500	-96.578445
3093.750000	-96.206482
3117.187500	-96.904854
3140.625000	-97.767891
3164.062500	-98.921684
3187.500000	-100.066093
3210.937500	-100.007141
3234.375000	-99.554382
3257.812500	-99.391983
3281.250000	-100.765015
3304.687500	-101.773064
3328.125000	-103.110825
3351.562500	-100.637794
3375.000000	-98.858673
3398.437500	-96.246429
3421.875000	-93.855515
3445.312500	-91.788101
3468.750000	-91.023277
3492.187500	-89.998245
3515.625000	-89.130287
3539.062500	-89.362076
3562.500000	-90.428825
3585.937500	-91.570778
3609.375000	-93.064529
3632.812500	-94.558495
3656.250000	-95.808044
3679.687500	-97.034760
3703.125000	-98.314987
3726.562500	-98.632294
3750.000000	-97.197731
3773.437500	-96.132668
3796.875000	-94.498283
3820.312500	-92.783577
3843.750000	-91.526268
3867.187500	-89.945381
3890.625000	-88.574059
3914.062500	-87.682762
3937.500000	-87.039040
3960.937500	-86.078720
3984.375000	-84.474655
4007.812500	-83.060745
4031.250000	-82.060516
4054.687500	-81.819016
4078.125000	-83.232887
4101.562500	-86.720795
4125.000000	-90.166962
4148.437500	-92.475723
4171.875000	-94.030426
4195.312500	-95.558746
4218.750000	-96.533852
4242.187500	-95.874786
4265.625000	-96.366844
4289.062500	-96.229202
4312.500000	-94.763641
4335.937500	-93.518333
4359.375000	-92.920052
4382.812500	-92.366493
4406.250000	-91.733948
4429.687500	-91.632935
4453.125000	-91.148994
4476.562500	-90.332123
4500.000000	-89.139832
4523.437500	-88.502815
4546.875000	-87.547623
4570.312500	-87.186211
4593.750000	-87.403152
4617.187500	-87.997192
4640.625000	-89.167992
4664.062500	-90.790817
4687.500000	-91.617119
4710.937500	-91.561348
4734.375000	-90.932144
4757.812500	-90.843430
4781.250000	-91.046661
4804.687500	-91.184532
4828.125000	-90.950974
4851.562500	-90.621300
4875.000000	-90.547691
4898.437500	-90.730103
4921.875000	-90.816734
4945.312500	-91.275337
4968.750000	-93.293640
4992.187500	-95.542831
5015.625000	-97.068298
5039.062500	-97.457085
5062.500000	-96.799278
5085.937500	-95.783379
5109.375000	-95.298088
5132.812500	-94.617294
5156.250000	-92.562912
5179.687500	-90.215637
5203.125000	-88.090332
5226.562500	-85.956657
5250.000000	-84.137215
5273.437500	-82.989746
5296.875000	-81.855858
5320.312500	-80.620728
5343.750000	-79.329796
5367.187500	-78.385826
5390.625000	-77.605568
5414.062500	-77.661476
5437.500000	-77.785217
5460.937500	-78.656059
5484.375000	-80.402977
5507.812500	-82.629158
5531.250000	-84.451157
5554.687500	-85.598862
5578.125000	-86.461342
5601.562500	-85.686340
5625.000000	-83.427231
5648.437500	-81.507057
5671.875000	-79.574371
5695.312500	-77.984016
5718.750000	-76.750198
5742.187500	-75.539589
5765.625000	-74.609566
5789.062500	-74.120949
5812.500000	-74.686752
5835.937500	-75.484314
5859.375000	-76.200195
5882.812500	-76.325493
5906.250000	-76.282463
5929.687500	-75.554672
5953.125000	-75.723076
5976.562500	-76.195541
6000.000000	-77.028419
6023.437500	-78.753647
6046.875000	-79.706970
6070.312500	-80.401619
6093.750000	-80.179115
6117.187500	-79.623032
6140.625000	-79.315254
6164.062500	-78.590912
6187.500000	-78.033150
6210.937500	-77.365730
6234.375000	-77.299591
6257.812500	-76.179672
6281.250000	-75.523666
6304.687500	-74.949486
6328.125000	-74.676598
6351.562500	-73.808609
6375.000000	-73.459175
6398.437500	-73.317238
6421.875000	-73.018394
6445.312500	-73.199280
6468.750000	-74.340340
6492.187500	-76.096565
6515.625000	-78.286568
6539.062500	-80.131149
6562.500000	-80.399384
6585.937500	-79.259254
6609.375000	-78.255203
6632.812500	-77.582504
6656.250000	-77.615829
6679.687500	-77.079620
6703.125000	-74.835869
6726.562500	-73.230339
6750.000000	-72.122017
6773.437500	-71.452942
6796.875000	-71.712845
6820.312500	-72.099747
6843.750000	-72.379120
6867.187500	-72.400970
6890.625000	-73.036377
6914.062500	-73.232208
6937.500000	-73.229843
6960.937500	-73.461296
6984.375000	-73.916733
7007.812500	-73.566360
7031.250000	-72.861488
7054.687500	-71.668930
7078.125000	-70.648720
7101.562500	-69.811897
7125.000000	-69.597679
7148.437500	-69.868889
7171.875000	-69.839821
7195.312500	-69.163383
7218.750000	-69.509720
7242.187500	-70.160110
7265.625000	-70.911636
7289.062500	-71.291138
7312.500000	-72.088570
7335.937500	-72.801727
7359.375000	-73.660545
7382.812500	-74.078224
7406.250000	-74.287628
7429.687500	-74.335922
7453.125000	-74.176308
7476.562500	-74.089615
7500.000000	-74.054474
7523.437500	-73.869148
7546.875000	-73.816971
7570.312500	-73.709709
7593.750000	-74.348984
7617.187500	-74.659851
7640.625000	-74.647408
7664.062500	-74.858604
7687.500000	-75.321121
7710.937500	-75.608566
7734.375000	-76.422661
7757.812500	-76.763130
7781.250000	-77.447227
7804.687500	-78.724670
7828.125000	-79.687462
7851.562500	-81.253250
7875.000000	-83.408615
7898.437500	-86.041260
7921.875000	-88.844398
7945.312500	-91.416115
7968.750000	-94.861931
7992.187500	-99.918465
8015.625000	-105.088715
8039.062500	-102.697350
8062.500000	-98.367935
8085.937500	-94.550964
8109.375000	-91.406822
8132.812500	-88.807396
8156.250000	-86.881699
8179.687500	-85.155464
8203.125000	-84.309212
8226.562500	-83.507919
8250.000000	-82.861145
8273.437500	-82.990730
8296.875000	-83.686691
8320.312500	-85.157501
8343.750000	-86.368645
8367.187500	-87.888763
8390.625000	-89.771690
8414.062500	-91.420677
8437.500000	-94.331566
8460.937500	-98.489700
8484.375000	-102.101143
8507.812500	-99.451088
8531.250000	-96.006645
8554.687500	-94.138206
8578.125000	-92.000107
8601.562500	-90.397743
8625.000000	-89.904671
8648.437500	-89.625671
8671.875000	-89.697975
8695.312500	-90.149399
8718.750000	-90.253868
8742.187500	-90.540291
8765.625000	-90.589264
8789.062500	-90.394241
8812.500000	-90.390495
8835.937500	-90.109573
8859.375000	-90.212753
8882.812500	-90.241829
8906.250000	-90.195160
8929.687500	-90.302467
8953.125000	-90.339355
8976.562500	-90.498627
9000.000000	-89.838028
9023.437500	-89.724396
9046.875000	-89.392235
9070.312500	-88.785980
9093.750000	-88.464478
9117.187500	-87.686905
9140.625000	-86.686356
9164.062500	-85.788017
9187.500000	-84.948410
9210.937500	-84.564972
9234.375000	-84.043068
9257.812500	-83.664551
9281.250000	-82.970215
9304.687500	-83.325821
9328.125000	-83.437592
9351.562500	-83.549629
9375.000000	-84.115089
9398.437500	-84.400604
9421.875000	-84.736794
9445.312500	-84.984596
9468.750000	-84.814499
9492.187500	-84.624626
9515.625000	-84.244835
9539.062500	-83.893341
9562.500000	-83.923386
9585.937500	-84.096619
9609.375000	-83.800545
9632.812500	-84.141228
9656.250000	-84.333939
9679.687500	-84.958672
9703.125000	-86.187569
9726.562500	-87.016083
9750.000000	-87.810333
9773.437500	-88.623985
9796.875000	-89.009804
9820.312500	-89.174469
9843.750000	-89.988289
9867.187500	-91.015274
9890.625000	-92.067909
9914.062500	-93.227364
9937.500000	-93.574448
9960.937500	-94.462914
9984.375000	-95.599831
10007.812500	-96.904678
10031.250000	-98.403030
10054.687500	-100.160347
10078.125000	-102.768852
10101.562500	-104.559265
10125.000000	-105.252388
10148.437500	-104.536087
10171.875000	-103.876930
10195.312500	-101.031097
10218.750000	-98.339676
10242.187500	-95.826607
10265.625000	-93.837334
10289.062500	-92.190384
10312.500000	-90.571533
10335.937500	-89.680084
10359.375000	-88.805305
10382.812500	-88.170265
10406.250000	-87.708153
10429.687500	-86.771431
10453.125000	-86.561905
10476.562500	-86.215935
10500.000000	-85.945282
10523.437500	-85.872650
10546.875000	-85.543907
10570.312500	-85.269783
10593.750000	-85.027077
10617.187500	-84.758972
10640.625000	-84.736671
10664.062500	-85.436188
10687.500000	-85.923744
10710.937500	-85.858391
10734.375000	-86.347275
10757.812500	-87.627228
10781.250000	-88.280281
10804.687500	-89.374092
10828.125000	-90.814148
10851.562500	-91.653740
10875.000000	-93.151108
10898.437500	-94.278717
10921.875000	-95.108864
10945.312500	-94.970840
10968.750000	-94.265930
10992.187500	-92.411613
11015.625000	-90.682343
11039.062500	-89.491966
11062.500000	-88.486328
11085.937500	-87.596474
11109.375000	-86.982018
11132.812500	-86.296707
11156.250000	-85.564461
11179.687500	-85.363037
11203.125000	-84.964256
11226.562500	-83.806900
11250.000000	-83.642563
11273.437500	-83.673935
11296.875000	-83.099747
11320.312500	-82.890129
11343.750000	-82.838982
11367.187500	-83.087395
11390.625000	-83.443886
11414.062500	-84.147171
11437.500000	-85.161591
11460.937500	-86.341049
11484.375000	-87.139229
11507.812500	-87.319366
11531.250000	-86.791687
11554.687500	-85.848114
11578.125000	-85.360039
11601.562500	-84.493973
11625.000000	-84.005577
11648.437500	-83.771584
11671.875000	-83.708855
11695.312500	-83.658958
11718.750000	-84.080246
11742.187500	-84.473869
11765.625000	-84.679977
11789.062500	-85.235550
11812.500000	-85.166702
11835.937500	-85.144127
11859.375000	-84.874969
11882.812500	-84.992401
11906.250000	-84.615486
11929.687500	-84.503578
11953.125000	-84.793846
11976.562500	-84.852112
12000.000000	-84.711151
12023.437500	-84.803650
12046.875000	-84.505630
12070.312500	-84.844849
12093.750000	-84.685837
12117.187500	-84.063904
12140.625000	-83.401787
12164.062500	-82.116150
12187.500000	-80.902390
12210.937500	-79.789261
12234.375000	-78.615715
12257.812500	-78.039368
12281.250000	-77.306152
12304.687500	-76.919601
12328.125000	-76.222412
12351.562500	-76.040909
12375.000000	-76.000778
12398.437500	-75.786568
12421.875000	-75.317223
12445.312500	-75.130508
12468.750000	-75.005692
12492.187500	-74.547615
12515.625000	-74.808121
12539.062500	-75.544762
12562.500000	-75.587875
12585.937500	-75.617569
12609.375000	-76.046356
12632.812500	-76.363159
12656.250000	-76.572517
12679.687500	-76.508232
12703.125000	-76.638062
12726.562500	-76.905197
12750.000000	-76.742294
12773.437500	-76.740273
12796.875000	-76.910828
12820.312500	-76.934189
12843.750000	-77.115913
12867.187500	-77.440971
12890.625000	-77.636589
12914.062500	-78.150902
12937.500000	-78.992950
12960.937500	-79.438522
12984.375000	-80.009880
13007.812500	-80.627121
13031.250000	-81.215897
13054.687500	-81.196793
13078.125000	-81.240067
13101.562500	-81.316025
13125.000000	-81.319016
13148.437500	-81.038582
13171.875000	-80.936905
13195.312500	-80.706223
13218.750000	-80.454971
13242.187500	-80.479088
13265.625000	-80.262886
13289.062500	-80.433128
13312.500000	-80.879631
13335.937500	-81.026115
13359.375000	-81.004852
13382.812500	-81.423431
13406.250000	-81.513771
13429.687500	-81.784630
13453.125000	-82.368088
13476.562500	-83.155708
13500.000000	-83.228394
13523.437500	-83.785744
13546.875000	-84.854607
13570.312500	-85.035721
13593.750000	-85.182442
13617.187500	-85.986694
13640.625000	-86.194595
13664.062500	-86.275215
13687.500000	-86.362648
13710.937500	-86.366241
13734.375000	-86.353622
13757.812500	-86.447083
13781.250000	-86.887482
13804.687500	-87.001801
13828.125000	-86.960548
13851.562500	-87.146271
13875.000000	-87.819687
13898.437500	-88.266319
13921.875000	-89.277565
13945.312500	-89.821190
13968.750000	-90.669128
13992.187500	-92.034607
14015.625000	-92.839188
14039.062500	-93.560097
14062.500000	-94.864532
14085.937500	-96.359772
14109.375000	-97.471992
14132.812500	-98.347328
14156.250000	-99.259995
14179.687500	-101.381989
14203.125000	-102.531181
14226.562500	-102.838966
14250.000000	-102.264961
14273.437500	-103.815231
14296.875000	-103.907036
14320.312500	-103.583130
14343.750000	-102.002068
14367.187500	-102.032387
14390.625000	-101.301315
14414.062500	-100.781548
14437.500000	-98.764854
14460.937500	-98.091637
14484.375000	-98.128738
14507.812500	-97.802414
14531.250000	-96.962624
14554.687500	-95.970963
14578.125000	-96.263115
14601.562500	-96.486626
14625.000000	-96.692360
14648.437500	-96.577477
14671.875000	-97.415497
14695.312500	-97.632729
14718.750000	-98.187370
14742.187500	-97.967628
14765.625000	-98.837646
14789.062500	-99.638268
14812.500000	-99.433853
14835.937500	-99.024178
14859.375000	-98.085648
14882.812500	-97.320976
14906.250000	-96.641785
14929.687500	-95.575859
14953.125000	-94.622696
14976.562500	-94.144234
15000.000000	-93.355713
15023.437500	-93.184990
15046.875000	-92.280876
15070.312500	-91.911026
15093.750000	-90.926735
15117.187500	-90.586319
15140.625000	-90.437981
15164.062500	-90.349739
15187.500000	-89.815758
15210.937500	-89.868225
15234.375000	-89.585777
15257.812500	-89.472031
15281.250000	-89.866348
15304.687500	-89.869850
15328.125000	-89.993523
15351.562500	-89.874222
15375.000000	-90.182701
15398.437500	-90.270439
15421.875000	-90.427284
15445.312500	-90.630226
15468.750000	-91.011620
15492.187500	-91.535965
15515.625000	-91.749344
15539.062500	-91.906677
15562.500000	-91.931290
15585.937500	-91.960732
15609.375000	-91.911804
15632.812500	-92.111687
15656.250000	-92.338455
15679.687500	-92.593422
15703.125000	-92.456245
15726.562500	-92.571098
15750.000000	-92.270805
15773.437500	-93.275673
15796.875000	-93.698944
15820.312500	-93.952087
15843.750000	-93.875137
15867.187500	-94.606201
15890.625000	-95.440514
15914.062500	-96.135384
15937.500000	-96.085655
15960.937500	-96.618652
15984.375000	-97.467133
16007.812500	-98.298416
16031.250000	-98.946526
16054.687500	-99.391052
16078.125000	-100.684937
16101.562500	-101.697258
16125.000000	-102.505920
16148.437500	-102.512627
16171.875000	-103.350975
16195.312500	-103.314651
16218.750000	-103.124893
16242.187500	-101.175941
16265.625000	-101.906601
16289.062500	-102.298180
16312.500000	-101.786728
16335.937500	-99.256371
16359.375000	-99.218201
16382.812500	-100.163239
16406.250000	-99.952805
16429.687500	-99.660820
16453.125000	-98.944374
16476.562500	-99.326233
16500.000000	-99.337036
16523.437500	-98.843666
16546.875000	-97.934189
16570.312500	-99.097542
16593.750000	-99.785477
16617.187500	-99.599030
16640.625000	-98.831055
16664.062500	-99.121178
16687.500000	-99.349022
16710.937500	-99.619858
16734.375000	-98.726479
16757.812500	-98.372070
16781.250000	-99.193787
16804.687500	-99.360245
16828.125000	-98.520866
16851.562500	-98.068268
16875.000000	-99.219070
16898.437500	-99.346642
16921.875000	-99.477966
16945.312500	-97.920731
16968.750000	-99.446754
16992.187500	-100.149361
17015.625000	-99.919380
17039.062500	-98.279953
17062.500000	-99.424843
17085.937500	-100.407715
17109.375000	-100.395050
17132.812500	-100.433304
17156.250000	-100.527512
17179.687500	-100.874664
17203.125000	-100.621880
17226.562500	-99.716187
17250.000000	-98.501930
17273.437500	-100.579376
17296.875000	-100.711830
17320.312500	-100.193703
17343.750000	-98.225601
17367.187500	-99.727409
17390.625000	-100.195793
17414.062500	-100.257874
17437.500000	-98.553253
17460.937500	-99.144180
17484.375000	-100.255478
17507.812500	-100.510086
17531.250000	-99.137848
17554.687500	-98.343277
17578.125000	-99.901756
17601.562500	-100.186256
17625.000000	-99.112167
17648.437500	-97.289948
17671.875000	-99.484184
17695.312500	-99.715546
17718.750000	-99.412903
17742.187500	-98.491829
17765.625000	-98.996727
17789.062500	-98.942299
17812.500000	-98.830315
17835.937500	-97.807144
17859.375000	-98.027885
17882.812500	-98.808495
17906.250000	-98.714531
17929.687500	-97.520020
17953.125000	-96.222801
17976.562500	-92.266647
18000.000000	-93.173866
18023.437500	-97.873238
18046.875000	-95.953178
18070.312500	-98.210449
18093.750000	-98.830803
18117.187500	-98.731735
18140.625000	-96.777527
18164.062500	-97.917038
18187.500000	-98.496460
18210.937500	-98.656677
18234.375000	-97.147530
18257.812500	-97.429436
18281.250000	-98.351021
18304.687500	-98.505363
18328.125000	-97.275032
18351.562500	-96.028229
18375.000000	-97.960335
18398.437500	-97.868469
18421.875000	-98.016647
18445.312500	-96.548889
18468.750000	-97.791985
18492.187500	-97.819267
18515.625000	-98.053314
18539.062500	-95.977325
18562.500000	-96.852547
18585.937500	-97.832016
18609.375000	-97.949699
18632.812500	-96.263329
18656.250000	-96.006454
18679.687500	-97.961296
18703.125000	-98.026169
18726.562500	-97.255043
18750.000000	-96.403778
18773.437500	-97.922989
18796.875000	-97.768990
18820.312500	-97.378838
18843.750000	-94.987289
18867.187500	-97.085587
18890.625000	-97.193909
18914.062500	-97.733109
18937.500000	-96.448936
18960.937500	-97.156731
18984.375000	-97.675163
19007.812500	-97.889282
19031.250000	-96.451118
19054.687500	-95.881363
19078.125000	-97.660843
19101.562500	-97.541191
19125.000000	-96.840546
19148.437500	-95.217537
19171.875000	-97.212593
19195.312500	-97.418846
19218.750000	-97.837616
19242.187500	-96.772720
19265.625000	-97.409897
19289.062500	-97.451820
19312.500000	-97.849983
19335.937500	-96.255814
19359.375000	-96.603210
19382.812500	-97.098869
19406.250000	-97.174034
19429.687500	-95.869438
19453.125000	-95.174248
19476.562500	-97.331390
19500.000000	-97.518929
19523.437500	-97.007362
19546.875000	-95.790771
19570.312500	-97.195503
19593.750000	-97.374947
19617.187500	-97.612953
19640.625000	-96.181725
19664.062500	-97.304756
19687.500000	-97.777794
19710.937500	-97.832047
19734.375000	-96.884216
19757.812500	-97.060875
19781.250000	-97.509575
19804.687500	-97.594086
19828.125000	-97.471565
19851.562500	-96.787193
19875.000000	-97.738014
19898.437500	-97.810867
19921.875000	-98.217903
19945.312500	-97.165344
19968.750000	-98.269684
19992.187500	-98.235565
20015.625000	-98.746635
20039.062500	-98.299316
20062.500000	-98.835060
20085.937500	-98.507523
20109.375000	-98.789490
20132.812500	-97.618095
20156.250000	-97.830971
20179.687500	-99.231400
20203.125000	-99.561188
20226.562500	-99.807091
20250.000000	-99.545059
20273.437500	-99.934494
20296.875000	-99.873550
20320.312500	-100.363503
20343.750000	-98.891006
20367.187500	-100.292656
20390.625000	-100.563812
20414.062500	-100.971199
20437.500000	-100.313965
20460.937500	-101.111893
20484.375000	-101.399551
20507.812500	-101.492805
20531.250000	-101.288887
20554.687500	-101.282730
20578.125000	-101.669922
20601.562500	-101.436142
20625.000000	-101.200684
20648.437500	-100.280540
20671.875000	-101.630653
20695.312500	-101.686928
20718.750000	-102.063080
20742.187500	-101.880096
20765.625000	-102.381317
20789.062500	-102.331688
20812.500000	-102.509064
20835.937500	-101.529327
20859.375000	-101.670364
20882.812500	-102.390053
20906.250000	-102.482811
20929.687500	-102.681503
20953.125000	-102.623260
20976.562500	-103.001633
21000.000000	-102.738922
21023.437500	-102.558548
21046.875000	-102.199677
21070.312500	-103.139709
21093.750000	-103.167007
21117.187500	-103.248466
21140.625000	-102.712898
21164.062500	-103.124290
21187.500000	-103.304031
21210.937500	-103.412491
21234.375000	-103.354782
21257.812500	-103.330551
21281.250000	-103.540329
21304.687500	-103.517754
21328.125000	-103.365036
21351.562500	-102.996292
21375.000000	-103.595398
21398.437500	-103.957291
21421.875000	-103.742165
21445.312500	-103.441177
21468.750000	-103.980812
21492.187500	-104.161835
21515.625000	-104.088081
21539.062500	-103.608971
21562.500000	-103.901360
21585.937500	-103.881004
21609.375000	-103.902176
21632.812500	-103.805504
21656.250000	-103.799767
21679.687500	-104.020279
21703.125000	-104.084564
21726.562500	-104.234779
21750.000000	-103.838310
21773.437500	-104.307510
21796.875000	-104.254311
21820.312500	-104.593681
21843.750000	-104.183426
21867.187500	-104.607437
21890.625000	-104.589294
21914.062500	-104.175629
21937.500000	-104.319923
21960.937500	-104.668724
21984.375000	-104.605148
22007.812500	-104.200401
22031.250000	-104.376274
22054.687500	-104.657486
22078.125000	-104.732536
22101.562500	-104.369415
22125.000000	-104.447990
22148.437500	-104.515915
22171.875000	-104.653984
22195.312500	-104.760902
22218.750000	-104.483246
22242.187500	-104.460915
22265.625000	-104.753242
22289.062500	-104.780174
22312.500000	-104.853584
22335.937500	-104.579765
22359.375000	-104.748657
22382.812500	-104.813042
22406.250000	-104.769691
22429.687500	-104.647293
22453.125000	-104.840057
22476.562500	-104.919952
22500.000000	-104.552925
22523.437500	-104.631012
22546.875000	-104.478882
22570.312500	-104.419502
22593.750000	-103.595306
22617.187500	-104.493980
22640.625000	-104.721382
22664.062500	-105.050797
22687.500000	-105.056221
22710.937500	-105.168991
22734.375000	-104.904922
22757.812500	-105.132545
22781.250000	-105.000732
22804.687500	-104.875381
22828.125000	-104.914032
22851.562500	-104.846542
22875.000000	-104.969429
22898.437500	-104.743492
22921.875000	-105.009956
22945.312500	-104.971947
22968.750000	-104.838715
22992.187500	-104.775017
23015.625000	-105.052299
23039.062500	-105.169662
23062.500000	-105.198669
23085.937500	-105.072884
23109.375000	-105.405426
23132.812500	-105.199196
23156.250000	-105.198311
23179.687500	-105.300148
23203.125000	-105.426964
23226.562500	-105.339478
23250.000000	-105.129211
23273.437500	-105.307152
23296.875000	-105.432732
23320.312500	-105.162849
23343.750000	-105.575096
23367.187500	-105.641808
23390.625000	-105.310844
23414.062500	-105.219193
23437.500000	-105.237747
23460.937500	-105.356270
23484.375000	-105.512474
23507.812500	-105.345528
23531.250000	-105.388710
23554.687500	-105.636299
23578.125000	-105.638039
23601.562500	-105.305038
23625.000000	-105.425514
23648.437500	-105.740334
23671.875000	-105.823334
23695.312500	-105.603714
23718.750000	-105.591919
23742.187500	-105.270073
23765.625000	-105.418404
23789.062500	-105.516945
23812.500000	-105.363602
23835.937500	-105.299889
23859.375000	-105.271721
23882.812500	-105.568596
23906.250000	-105.513016
23929.687500	-105.158195
23953.125000	-105.144753
23976.562500	-105.683624
