Frequency (Hz)	Level (dB)
23.437500	-54.240734
46.875000	-46.373474
70.312500	-50.625816
93.750000	-65.194748
117.187500	-66.767906
140.625000	-76.351311
164.062500	-80.022118
187.500000	-78.218895
210.937500	-77.530792
234.375000	-84.327827
257.812500	-83.427048
281.250000	-76.525620
304.687500	-73.021278
328.125000	-74.978920
351.562500	-70.530655
375.000000	-76.394844
398.437500	-78.707375
421.875000	-80.072632
445.312500	-73.724152
468.750000	-76.697090
492.187500	-85.227699
515.625000	-85.109711
539.062500	-84.382973
562.500000	-84.189484
585.937500	-86.705826
609.375000	-86.951073
632.812500	-79.235748
656.250000	-75.957832
679.687500	-84.152946
703.125000	-90.797218
726.562500	-89.708694
750.000000	-84.017113
773.437500	-88.078560
796.875000	-86.390587
820.312500	-89.403427
843.750000	-93.303139
867.187500	-91.486946
890.625000	-86.730087
914.062500	-86.538048
937.500000	-82.214256
960.937500	-81.096451
984.375000	-89.657166
1007.812500	-90.405579
1031.250000	-89.202431
1054.687500	-85.118690
1078.125000	-90.404320
1101.562500	-89.399231
1125.000000	-86.516266
1148.437500	-86.205055
1171.875000	-87.466187
1195.312500	-87.679558
1218.750000	-86.649071
1242.187500	-83.507217
1265.625000	-84.923546
1289.062500	-91.849731
1312.500000	-92.024910
1335.937500	-90.434555
1359.375000	-88.331192
1382.812500	-90.178673
1406.250000	-86.861603
1429.687500	-85.580116
1453.125000	-85.663300
1476.562500	-84.832664
1500.000000	-83.437866
1523.437500	-86.194519
1546.875000	-89.019417
1570.312500	-90.887016
1593.750000	-90.812233
1617.187500	-87.600258
1640.625000	-83.231400
1664.062500	-81.799614
1687.500000	-82.493774
1710.937500	-83.948929
1734.375000	-84.688232
1757.812500	-84.144699
1781.250000	-85.150131
1804.687500	-84.108910
1828.125000	-82.583710
1851.562500	-80.560280
1875.000000	-79.047585
1898.437500	-80.411201
1921.875000	-83.265366
1945.312500	-83.326218
1968.750000	-82.707619
1992.187500	-82.773499
2015.625000	-82.987267
2039.062500	-82.356178
2062.500000	-81.421471
2085.937500	-79.976295
2109.375000	-78.928978
2132.812500	-78.856789
2156.250000	-78.163040
2179.687500	-76.940056
2203.125000	-77.273247
2226.562500	-78.060211
2250.000000	-79.628616
2273.437500	-80.532234
2296.875000	-80.906082
2320.312500	-81.604591
2343.750000	-81.844719
2367.187500	-82.393372
2390.625000	-83.515015
2414.062500	-84.527809
2437.500000	-86.921837
2460.937500	-90.427826
2484.375000	-94.943054
2507.812500	-98.713104
2531.250000	-103.813698
2554.687500	-102.205605
2578.125000	-99.314201
2601.562500	-95.061005
2625.000000	-91.312714
2648.437500	-87.924370
2671.875000	-86.760338
2695.312500	-88.030952
2718.750000	-89.472534
2742.187500	-88.800339
2765.625000	-86.682129
2789.062500	-84.281464
2812.500000	-82.841980
2835.937500	-82.301193
2859.375000	-83.182991
2882.812500	-85.274872
2906.250000	-86.273521
2929.687500	-84.127213
2953.125000	-82.039703
2976.562500	-80.651993
3000.000000	-80.482208
3023.437500	-80.422424
3046.875000	-79.210022
3070.312500	-78.828690
3093.750000	-78.988441
3117.187500	-79.448097
3140.625000	-80.582108
3164.062500	-80.530731
3187.500000	-79.796021
3210.937500	-78.514847
3234.375000	-77.128754
3257.812500	-76.494995
3281.250000	-76.216347
3304.687500	-76.030243
3328.125000	-77.005272
3351.562500	-79.302948
3375.000000	-83.031837
3398.437500	-86.563011
3421.875000	-86.721504
3445.312500	-84.181969
3468.750000	-82.716293
3492.187500	-82.508553
3515.625000	-83.005974
3539.062500	-84.769424
3562.500000	-86.020180
3585.937500	-86.179985
3609.375000	-86.231232
3632.812500	-86.457344
3656.250000	-86.826172
3679.687500	-87.028046
3703.125000	-87.579308
3726.562500	-87.484886
3750.000000	-86.607254
3773.437500	-85.922249
3796.875000	-85.293762
3820.312500	-85.077881
3843.750000	-85.335411
3867.187500	-86.090065
3890.625000	-86.511597
3914.062500	-87.455345
3937.500000	-88.719131
3960.937500	-89.526810
3984.375000	-90.143913
4007.812500	-91.494896
4031.250000	-93.296982
4054.687500	-95.227570
4078.125000	-97.277290
4101.562500	-99.418182
4125.000000	-102.003624
4148.437500	-104.793144
4171.875000	-107.307716
4195.312500	-105.700951
4218.750000	-104.064720
4242.187500	-104.032013
4265.625000	-104.660896
4289.062500	-103.583000
4312.500000	-101.899544
4335.937500	-101.081635
4359.375000	-100.469444
4382.812500	-97.705246
4406.250000	-93.617043
4429.687500	-90.431313
4453.125000	-88.089645
4476.562500	-86.204262
4500.000000	-84.991600
4523.437500	-84.931435
4546.875000	-84.526985
4570.312500	-84.284004
4593.750000	-85.123886
4617.187500	-86.137146
4640.625000	-87.785515
4664.062500	-90.158173
4687.500000	-93.410393
4710.937500	-97.269745
4734.375000	-100.640259
4757.812500	-99.407021
4781.250000	-95.411758
4804.687500	-92.182251
4828.125000	-90.095871
4851.562500	-87.965225
4875.000000	-86.169861
4898.437500	-84.045334
4921.875000	-82.180740
4945.312500	-81.248848
4968.750000	-81.052925
4992.187500	-80.447464
5015.625000	-79.656593
5039.062500	-79.638542
5062.500000	-80.439072
5085.937500	-81.670395
5109.375000	-83.202034
5132.812500	-84.387276
5156.250000	-84.675339
5179.687500	-84.663437
5203.125000	-84.635490
5226.562500	-83.744514
5250.000000	-82.703827
5273.437500	-82.874290
5296.875000	-83.385666
5320.312500	-83.880775
5343.750000	-83.252106
5367.187500	-82.150215
5390.625000	-80.951881
5414.062500	-80.060722
5437.500000	-79.134201
5460.937500	-78.027939
5484.375000	-77.470718
5507.812500	-77.204102
5531.250000	-77.036842
5554.687500	-76.873169
5578.125000	-77.398766
5601.562500	-77.513466
5625.000000	-77.032219
5648.437500	-77.283432
5671.875000	-77.750900
5695.312500	-78.245461
5718.750000	-79.291847
5742.187500	-80.857941
5765.625000	-82.277199
5789.062500	-83.330200
5812.500000	-84.663124
5835.937500	-85.027245
5859.375000	-83.994041
5882.812500	-81.976425
5906.250000	-79.458542
5929.687500	-76.706398
5953.125000	-74.591072
5976.562500	-73.121689
6000.000000	-72.780838
6023.437500	-73.145432
6046.875000	-74.039886
6070.312500	-75.050545
6093.750000	-75.292030
6117.187500	-75.169411
6140.625000	-75.321648
6164.062500	-75.535240
6187.500000	-75.281303
6210.937500	-74.818443
6234.375000	-74.800385
6257.812500	-74.528214
6281.250000	-74.136147
6304.687500	-74.575363
6328.125000	-74.886139
6351.562500	-74.937454
6375.000000	-75.171555
6398.437500	-74.963181
6421.875000	-74.476944
6445.312500	-73.638771
6468.750000	-73.506226
6492.187500	-73.420425
6515.625000	-73.473030
6539.062500	-73.811264
6562.500000	-74.179695
6585.937500	-74.782494
6609.375000	-76.074913
6632.812500	-78.020226
6656.250000	-80.916153
6679.687500	-84.218506
6703.125000	-87.510612
6726.562500	-92.846222
6750.000000	-93.519623
6773.437500	-86.533165
6796.875000	-81.993660
6820.312500	-79.141212
6843.750000	-77.244514
6867.187500	-75.539970
6890.625000	-74.512772
6914.062500	-73.518776
6937.500000	-72.222435
6960.937500	-71.457108
6984.375000	-70.798889
7007.812500	-70.285889
7031.250000	-69.791367
7054.687500	-69.576820
7078.125000	-69.681274
7101.562500	-69.607719
7125.000000	-70.056076
7148.437500	-70.901054
7171.875000	-71.285545
7195.312500	-71.377502
7218.750000	-72.085670
7242.187500	-73.019150
7265.625000	-73.932739
7289.062500	-74.485352
7312.500000	-75.435951
7335.937500	-76.616905
7359.375000	-77.562393
7382.812500	-78.601074
7406.250000	-79.485252
7429.687500	-80.700432
7453.125000	-82.420029
7476.562500	-84.719170
7500.000000	-87.046745
7523.437500	-88.448288
7546.875000	-88.623222
7570.312500	-88.431335
7593.750000	-89.049934
7617.187500	-89.321381
7640.625000	-90.133492
7664.062500	-90.260513
7687.500000	-90.136208
7710.937500	-89.713760
7734.375000	-89.017967
7757.812500	-87.374687
7781.250000	-86.079964
7804.687500	-85.253326
7828.125000	-83.879700
7851.562500	-82.894928
7875.000000	-82.282646
7898.437500	-81.675247
7921.875000	-81.364853
7945.312500	-80.909950
7968.750000	-81.001854
7992.187500	-81.160797
8015.625000	-81.515556
8039.062500	-81.481415
8062.500000	-81.273590
8085.937500	-80.968384
8109.375000	-81.540596
8132.812500	-81.775490
8156.250000	-82.461121
8179.687500	-82.717850
8203.125000	-83.472023
8226.562500	-83.677063
8250.000000	-84.066963
8273.437500	-84.631683
8296.875000	-85.544701
8320.312500	-87.056297
8343.750000	-88.642242
8367.187500	-89.990257
8390.625000	-91.444435
8414.062500	-92.190552
8437.500000	-92.949173
8460.937500	-92.794403
8484.375000	-92.697121
8507.812500	-92.372108
8531.250000	-91.691139
8554.687500	-91.710426
8578.125000	-90.876106
8601.562500	-90.070427
8625.000000	-89.567230
8648.437500	-89.224480
8671.875000	-88.292114
8695.312500	-88.043297
8718.750000	-87.834534
8742.187500	-88.005127
8765.625000	-87.701515
8789.062500	-87.198524
8812.500000	-87.650536
8835.937500	-87.227402
8859.375000	-87.021797
8882.812500	-87.400085
8906.250000	-87.420807
8929.687500	-87.276871
8953.125000	-87.249611
8976.562500	-87.146324
9000.000000	-86.741478
9023.437500	-86.640137
9046.875000	-86.168747
9070.312500	-86.050865
9093.750000	-86.536911
9117.187500	-86.709084
9140.625000	-87.126770
9164.062500	-87.642899
9187.500000	-88.100853
9210.937500	-89.029572
9234.375000	-90.127708
9257.812500	-90.777946
9281.250000	-91.448006
9304.687500	-92.481583
9328.125000	-93.684196
9351.562500	-94.532486
9375.000000	-95.538071
9398.437500	-96.735054
9421.875000	-97.680695
9445.312500	-98.481598
9468.750000	-98.860069
9492.187500	-99.737915
9515.625000	-100.404037
9539.062500	-100.719826
9562.500000	-100.084633
9585.937500	-100.803467
9609.375000	-101.249496
9632.812500	-100.749710
9656.250000	-99.508316
9679.687500	-98.629875
9703.125000	-98.403442
9726.562500	-97.903984
9750.000000	-97.299706
9773.437500	-96.925011
9796.875000	-96.435890
9820.312500	-96.329681
9843.750000	-96.271545
9867.187500	-96.855034
9890.625000	-97.629295
9914.062500	-98.099174
9937.500000	-97.114166
9960.937500	-98.285583
9984.375000	-101.520294
10007.812500	-103.671440
10031.250000	-99.222527
10054.687500	-97.589058
10078.125000	-103.644852
10101.562500	-105.906494
10125.000000	-103.810097
10148.437500	-101.311119
10171.875000	-98.836174
10195.312500	-97.022865
10218.750000	-95.632874
10242.187500	-94.222649
10265.625000	-92.553635
10289.062500	-91.334602
10312.500000	-90.013985
10335.937500	-89.548615
10359.375000	-89.073448
10382.812500	-88.714462
10406.250000	-88.225121
10429.687500	-87.816139
10453.125000	-87.499504
10476.562500	-87.344414
10500.000000	-87.206375
10523.437500	-87.522820
10546.875000	-87.639145
10570.312500	-87.770134
10593.750000	-88.063950
10617.187500	-88.107559
10640.625000	-88.404488
10664.062500	-88.951614
10687.500000	-89.064362
10710.937500	-88.964760
10734.375000	-88.670914
10757.812500	-89.027153
10781.250000	-89.054039
10804.687500	-88.963409
10828.125000	-89.218636
10851.562500	-88.804916
10875.000000	-89.017799
10898.437500	-89.087143
10921.875000	-89.137856
10945.312500	-89.408287
10968.750000	-89.907104
10992.187500	-90.007385
11015.625000	-89.395943
11039.062500	-89.127647
11062.500000	-89.408386
11085.937500	-89.592766
11109.375000	-89.977921
11132.812500	-89.604904
11156.250000	-89.745956
11179.687500	-90.013557
11203.125000	-90.245522
11226.562500	-89.811783
11250.000000	-90.144997
11273.437500	-90.534012
11296.875000	-90.823845
11320.312500	-91.217613
11343.750000	-91.300697
11367.187500	-91.369301
11390.625000	-91.722939
11414.062500	-92.199371
11437.500000	-92.820000
11460.937500	-92.841339
11484.375000	-93.030296
11507.812500	-93.229584
11531.250000	-93.496712
11554.687500	-93.702911
11578.125000	-94.637123
11601.562500	-95.616013
11625.000000	-96.545250
11648.437500	-97.615326
11671.875000	-97.343834
11695.312500	-96.168175
11718.750000	-94.363312
11742.187500	-92.359451
11765.625000	-90.348640
11789.062500	-89.005150
11812.500000	-87.659470
11835.937500	-86.689117
11859.375000	-85.841705
11882.812500	-85.354164
11906.250000	-84.748329
11929.687500	-84.523056
11953.125000	-84.729279
11976.562500	-85.172058
12000.000000	-85.528130
12023.437500	-86.019897
12046.875000	-86.368866
12070.312500	-87.304642
12093.750000	-88.628151
12117.187500	-89.169823
12140.625000	-90.343277
12164.062500	-90.620987
12187.500000	-90.631531
12210.937500	-90.309044
12234.375000	-89.481941
12257.812500	-88.601677
12281.250000	-87.655586
12304.687500	-86.777405
12328.125000	-86.077461
12351.562500	-85.644844
12375.000000	-85.460045
12398.437500	-85.152168
12421.875000	-84.617294
12445.312500	-84.427193
12468.750000	-84.494156
12492.187500	-84.563835
12515.625000	-85.085083
12539.062500	-85.965576
12562.500000	-86.281883
12585.937500	-86.580009
12609.375000	-86.937981
12632.812500	-87.301292
12656.250000	-87.539330
12679.687500	-87.285706
12703.125000	-87.132858
12726.562500	-87.170258
12750.000000	-86.683014
12773.437500	-86.142059
12796.875000	-85.536957
12820.312500	-84.610710
12843.750000	-83.701599
12867.187500	-82.609489
12890.625000	-81.669373
12914.062500	-81.055817
12937.500000	-80.605156
12960.937500	-80.053322
12984.375000	-79.655884
13007.812500	-79.586288
13031.250000	-79.643646
13054.687500	-79.383018
13078.125000	-79.528099
13101.562500	-79.831032
13125.000000	-80.080818
13148.437500	-80.269684
13171.875000	-80.557327
13195.312500	-80.677406
13218.750000	-80.978073
13242.187500	-81.401718
13265.625000	-81.669640
13289.062500	-82.092537
13312.500000	-82.604599
13335.937500	-83.078331
13359.375000	-83.530090
13382.812500	-83.860344
13406.250000	-84.017609
13429.687500	-84.275269
13453.125000	-84.401550
13476.562500	-84.771545
13500.000000	-84.834244
13523.437500	-85.301231
13546.875000	-86.064499
13570.312500	-86.576942
13593.750000	-87.136681
13617.187500	-88.021225
13640.625000	-89.532646
13664.062500	-90.323601
13687.500000	-91.403877
13710.937500	-92.221825
13734.375000	-92.306763
13757.812500	-92.385536
13781.250000	-92.210114
13804.687500	-92.511497
13828.125000	-92.374298
13851.562500	-92.337173
13875.000000	-92.255989
13898.437500	-92.429779
13921.875000	-92.530067
13945.312500	-92.378387
13968.750000	-92.267265
13992.187500	-92.252907
14015.625000	-92.001083
14039.062500	-91.517662
14062.500000	-91.297768
14085.937500	-90.753212
14109.375000	-90.394691
14132.812500	-89.832481
14156.250000	-89.020966
14179.687500	-88.271065
14203.125000	-87.860245
14226.562500	-87.206787
14250.000000	-86.487633
14273.437500	-86.426727
14296.875000	-86.618225
14320.312500	-86.235458
14343.750000	-86.073265
14367.187500	-85.726387
14390.625000	-85.285759
14414.062500	-85.393265
14437.500000	-85.626389
14460.937500	-85.414566
14484.375000	-85.542076
14507.812500	-86.212547
14531.250000	-86.674721
14554.687500	-86.584824
14578.125000	-87.247948
14601.562500	-88.439583
14625.000000	-89.387604
14648.437500	-90.747910
14671.875000	-92.056976
14695.312500	-93.182846
14718.750000	-94.068420
14742.187500	-95.166977
14765.625000	-95.531738
14789.062500	-95.262787
14812.500000	-95.210617
14835.937500	-94.666992
14859.375000	-93.760139
14882.812500	-93.723564
14906.250000	-94.463875
14929.687500	-95.068192
14953.125000	-95.382927
14976.562500	-95.612572
15000.000000	-96.285591
15023.437500	-97.349014
15046.875000	-98.459778
15070.312500	-98.860718
15093.750000	-99.099045
15117.187500	-98.996735
15140.625000	-98.496048
15164.062500	-97.876770
15187.500000	-96.611229
15210.937500	-95.917084
15234.375000	-94.631325
15257.812500	-93.929123
15281.250000	-93.184914
15304.687500	-92.508125
15328.125000	-92.158600
15351.562500	-91.629921
15375.000000	-90.954697
15398.437500	-90.687607
15421.875000	-90.667702
15445.312500	-90.703964
15468.750000	-90.679962
15492.187500	-90.747444
15515.625000	-91.108620
15539.062500	-91.270851
15562.500000	-91.911095
15585.937500	-92.654716
15609.375000	-93.699097
15632.812500	-95.353745
15656.250000	-97.108322
15679.687500	-98.361893
15703.125000	-99.008263
15726.562500	-97.315872
15750.000000	-95.434494
15773.437500	-94.143715
15796.875000	-93.023170
15820.312500	-91.999367
15843.750000	-90.521278
15867.187500	-89.959030
15890.625000	-89.698647
15914.062500	-89.392868
15937.500000	-88.890068
15960.937500	-88.598648
15984.375000	-88.559593
16007.812500	-88.676376
16031.250000	-88.659264
16054.687500	-88.958092
16078.125000	-88.862801
16101.562500	-88.930145
16125.000000	-89.078400
16148.437500	-89.175308
16171.875000	-89.241959
16195.312500	-89.334129
16218.750000	-89.830101
16242.187500	-90.035896
16265.625000	-89.945663
16289.062500	-90.074852
16312.500000	-90.815460
16335.937500	-91.155396
16359.375000	-91.345139
16382.812500	-91.092918
16406.250000	-91.607491
16429.687500	-92.228203
16453.125000	-91.998207
16476.562500	-91.963959
16500.000000	-92.453209
16523.437500	-92.594765
16546.875000	-92.574776
16570.312500	-93.099220
16593.750000	-93.664169
16617.187500	-94.218086
16640.625000	-94.734268
16664.062500	-95.597198
16687.500000	-95.918930
16710.937500	-96.327614
16734.375000	-96.807236
16757.812500	-96.956909
16781.250000	-96.841072
16804.687500	-97.403275
16828.125000	-97.710045
16851.562500	-97.492592
16875.000000	-96.433228
16898.437500	-96.794418
16921.875000	-98.314484
16945.312500	-98.022911
16968.750000	-97.819046
16992.187500	-97.947731
17015.625000	-99.284958
17039.062500	-99.405640
17062.500000	-99.508575
17085.937500	-98.223572
17109.375000	-99.959450
17132.812500	-100.970772
17156.250000	-100.960678
17179.687500	-99.413452
17203.125000	-100.053169
17226.562500	-100.836807
17250.000000	-100.338295
17273.437500	-98.545952
17296.875000	-97.918640
17320.312500	-99.505608
17343.750000	-99.491425
17367.187500	-98.844612
17390.625000	-97.967079
17414.062500	-98.403313
17437.500000	-98.270798
17460.937500	-97.932251
17484.375000	-97.521553
17507.812500	-97.776070
17531.250000	-97.913773
17554.687500	-97.299446
17578.125000	-96.843002
17601.562500	-97.022156
17625.000000	-97.128197
17648.437500	-96.692581
17671.875000	-96.323334
17695.312500	-96.069519
17718.750000	-96.414330
17742.187500	-96.454613
17765.625000	-96.287285
17789.062500	-95.266121
17812.500000	-96.270927
17835.937500	-96.623604
17859.375000	-96.174713
17882.812500	-95.174721
17906.250000	-95.308067
17929.687500	-95.434006
17953.125000	-95.328110
17976.562500	-92.206154
18000.000000	-92.642036
18023.437500	-95.701279
18046.875000	-96.205772
18070.312500	-95.902245
18093.750000	-95.375938
18117.187500	-96.393593
18140.625000	-96.783798
18164.062500	-96.881546
18187.500000	-95.572601
18210.937500	-96.623001
18234.375000	-96.915154
18257.812500	-96.902046
18281.250000	-96.289894
18304.687500	-96.868614
18328.125000	-97.442024
18351.562500	-97.046074
18375.000000	-96.058205
18398.437500	-95.969589
18421.875000	-97.018723
18445.312500	-96.690300
18468.750000	-96.228119
18492.187500	-95.655586
18515.625000	-97.011307
18539.062500	-97.019470
18562.500000	-97.080849
18585.937500	-95.615555
18609.375000	-96.818398
18632.812500	-97.648926
18656.250000	-97.459221
18679.687500	-95.645882
18703.125000	-95.878204
18726.562500	-97.673080
18750.000000	-97.477921
18773.437500	-97.259232
18796.875000	-96.778870
18820.312500	-97.784569
18843.750000	-97.509308
18867.187500	-97.279884
18890.625000	-95.971367
18914.062500	-97.426613
18937.500000	-97.325165
18960.937500	-97.357948
18984.375000	-96.309967
19007.812500	-97.122955
19031.250000	-97.410728
19054.687500	-97.150970
19078.125000	-95.858810
19101.562500	-95.566582
19125.000000	-97.667702
19148.437500	-97.547661
19171.875000	-96.177856
19195.312500	-94.386093
19218.750000	-96.905968
19242.187500	-97.133110
19265.625000	-97.562180
19289.062500	-97.063866
19312.500000	-97.619133
19335.937500	-97.528458
19359.375000	-97.076263
19382.812500	-95.193489
19406.250000	-95.773720
19429.687500	-97.515747
19453.125000	-97.289299
19476.562500	-96.125671
19500.000000	-95.462135
19523.437500	-97.321404
19546.875000	-97.344322
19570.312500	-97.054535
19593.750000	-95.459656
19617.187500	-97.234756
19640.625000	-97.562492
19664.062500	-97.451675
19687.500000	-96.245056
19710.937500	-97.144081
19734.375000	-97.737648
19757.812500	-97.542641
19781.250000	-97.210197
19804.687500	-97.259705
19828.125000	-97.863190
19851.562500	-97.622902
19875.000000	-97.004440
19898.437500	-96.054932
19921.875000	-98.483864
19945.312500	-98.494202
19968.750000	-98.458008
19992.187500	-96.711403
20015.625000	-98.190407
20039.062500	-98.529526
20062.500000	-98.841415
20085.937500	-98.714821
20109.375000	-99.147736
20132.812500	-99.195755
20156.250000	-99.297806
20179.687500	-99.419594
20203.125000	-99.451996
20226.562500	-99.960869
20250.000000	-99.573761
20273.437500	-99.873856
20296.875000	-99.541832
20320.312500	-100.444931
20343.750000	-100.523949
20367.187500	-100.639885
20390.625000	-99.684944
20414.062500	-101.249420
20437.500000	-101.641350
20460.937500	-101.716049
20484.375000	-101.033676
20507.812500	-101.255028
20531.250000	-101.878220
20554.687500	-101.824753
20578.125000	-101.753639
20601.562500	-101.567436
20625.000000	-102.463120
20648.437500	-102.481667
20671.875000	-102.580490
20695.312500	-101.754715
20718.750000	-102.717468
20742.187500	-102.627312
20765.625000	-102.876160
20789.062500	-102.401131
20812.500000	-102.691620
20835.937500	-102.759216
20859.375000	-103.047844
20882.812500	-102.471298
20906.250000	-102.452377
20929.687500	-103.320724
20953.125000	-103.601547
20976.562500	-103.922028
21000.000000	-103.795448
21023.437500	-103.985481
21046.875000	-103.834373
21070.312500	-103.955246
21093.750000	-103.485367
21117.187500	-104.452461
21140.625000	-104.509743
21164.062500	-104.878929
21187.500000	-103.883080
21210.937500	-104.375519
21234.375000	-104.671158
21257.812500	-104.870071
21281.250000	-104.787178
21304.687500	-104.553619
21328.125000	-105.219330
21351.562500	-105.055183
21375.000000	-105.033936
21398.437500	-104.563179
21421.875000	-105.599953
21445.312500	-105.502243
21468.750000	-105.731300
21492.187500	-105.084908
21515.625000	-105.323975
21539.062500	-105.499954
21562.500000	-105.471046
21585.937500	-104.866501
21609.375000	-105.024673
21632.812500	-105.702881
21656.250000	-105.701202
21679.687500	-105.558830
21703.125000	-105.131096
21726.562500	-105.968948
21750.000000	-106.203178
21773.437500	-106.339790
21796.875000	-106.112404
21820.312500	-106.442642
21843.750000	-106.372833
21867.187500	-106.724434
21890.625000	-106.262642
21914.062500	-106.347977
21937.500000	-106.615898
21960.937500	-107.065765
21984.375000	-106.607010
22007.812500	-106.624542
22031.250000	-106.760361
22054.687500	-106.580971
22078.125000	-106.755768
22101.562500	-106.358246
22125.000000	-106.756508
22148.437500	-106.781349
22171.875000	-107.133980
22195.312500	-107.064690
22218.750000	-107.286736
22242.187500	-107.558731
22265.625000	-107.037964
22289.062500	-106.805290
22312.500000	-106.902115
22335.937500	-106.845558
22359.375000	-107.143158
22382.812500	-106.741982
22406.250000	-106.851570
22429.687500	-107.194267
22453.125000	-107.390755
22476.562500	-107.301865
22500.000000	-107.145332
22523.437500	-107.289764
22546.875000	-106.941124
22570.312500	-106.496002
22593.750000	-105.442795
22617.187500	-107.182365
22640.625000	-107.485718
22664.062500	-107.650406
22687.500000	-107.376060
22710.937500	-107.508194
22734.375000	-107.775124
22757.812500	-107.584641
22781.250000	-107.650826
22804.687500	-107.718735
22828.125000	-107.797485
22851.562500	-107.550781
22875.000000	-107.523026
22898.437500	-107.479645
22921.875000	-107.854347
22945.312500	-107.817596
22968.750000	-107.946793
22992.187500	-107.610130
23015.625000	-108.066574
23039.062500	-108.350090
23062.500000	-108.368675
23085.937500	-108.023338
23109.375000	-107.960228
23132.812500	-108.148361
23156.250000	-108.332741
23179.687500	-107.920120
23203.125000	-107.676781
23226.562500	-108.191635
23250.000000	-108.314949
23273.437500	-108.212288
23296.875000	-108.070847
23320.312500	-108.120552
23343.750000	-108.354843
23367.187500	-108.424995
23390.625000	-108.334068
23414.062500	-108.376366
23437.500000	-108.477402
23460.937500	-108.557243
23484.375000	-108.175514
23507.812500	-108.078850
23531.250000	-108.370903
23554.687500	-108.290794
23578.125000	-108.214874
23601.562500	-108.280083
23625.000000	-108.483635
23648.437500	-108.624115
23671.875000	-108.839966
23695.312500	-108.465775
23718.750000	-108.640221
23742.187500	-108.647591
23765.625000	-108.551781
23789.062500	-108.436737
23812.500000	-108.582527
23835.937500	-108.763832
23859.375000	-108.872444
23882.812500	-108.613762
23906.250000	-108.265182
23929.687500	-108.662323
23953.125000	-108.721992
23976.562500	-108.735626
