Frequency (Hz)	Level (dB)
23.437500	-53.688778
46.875000	-45.970932
70.312500	-50.234379
93.750000	-65.427658
117.187500	-67.085625
140.625000	-75.311264
164.062500	-75.724052
187.500000	-73.238640
210.937500	-74.143646
234.375000	-78.982765
257.812500	-81.574165
281.250000	-75.488708
304.687500	-72.464081
328.125000	-74.207115
351.562500	-69.879478
375.000000	-74.840530
398.437500	-78.021103
421.875000	-78.057320
445.312500	-72.087341
468.750000	-73.224281
492.187500	-73.052635
515.625000	-72.329216
539.062500	-77.334000
562.500000	-81.965622
585.937500	-79.178123
609.375000	-79.751930
632.812500	-76.955040
656.250000	-74.787773
679.687500	-83.291023
703.125000	-91.451469
726.562500	-88.382744
750.000000	-82.021500
773.437500	-84.764015
796.875000	-85.671410
820.312500	-89.169533
843.750000	-88.906479
867.187500	-82.417526
890.625000	-77.079842
914.062500	-77.954323
937.500000	-79.628593
960.937500	-80.199959
984.375000	-87.483238
1007.812500	-88.604515
1031.250000	-86.749634
1054.687500	-82.864075
1078.125000	-82.211632
1101.562500	-78.988976
1125.000000	-77.999969
1148.437500	-78.819336
1171.875000	-80.669876
1195.312500	-83.886978
1218.750000	-87.293930
1242.187500	-83.593704
1265.625000	-84.160965
1289.062500	-87.837837
1312.500000	-87.152878
1335.937500	-85.854164
1359.375000	-84.943329
1382.812500	-85.058395
1406.250000	-83.420631
1429.687500	-82.120796
1453.125000	-81.419006
1476.562500	-81.772659
1500.000000	-81.787590
1523.437500	-80.884750
1546.875000	-80.816139
1570.312500	-81.520309
1593.750000	-81.525177
1617.187500	-79.715523
1640.625000	-79.122513
1664.062500	-80.971443
1687.500000	-84.649895
1710.937500	-88.053558
1734.375000	-88.937149
1757.812500	-87.304085
1781.250000	-91.026909
1804.687500	-89.369232
1828.125000	-86.761177
1851.562500	-83.676659
1875.000000	-81.352585
1898.437500	-80.196541
1921.875000	-79.442772
1945.312500	-78.266914
1968.750000	-77.336609
1992.187500	-76.659348
2015.625000	-76.995209
2039.062500	-77.912727
2062.500000	-77.995346
2085.937500	-77.752136
2109.375000	-78.211647
2132.812500	-80.385956
2156.250000	-82.577591
2179.687500	-82.901573
2203.125000	-82.627899
2226.562500	-82.940994
2250.000000	-84.347198
2273.437500	-85.271706
2296.875000	-86.179573
2320.312500	-87.049606
2343.750000	-87.567932
2367.187500	-89.016518
2390.625000	-90.202477
2414.062500	-90.603432
2437.500000	-90.205612
2460.937500	-88.310448
2484.375000	-86.436485
2507.812500	-85.209106
2531.250000	-85.435143
2554.687500	-85.330757
2578.125000	-84.881340
2601.562500	-84.865364
2625.000000	-84.862274
2648.437500	-82.986877
2671.875000	-81.659561
2695.312500	-82.070717
2718.750000	-83.609169
2742.187500	-85.632530
2765.625000	-87.162231
2789.062500	-86.520607
2812.500000	-85.561150
2835.937500	-86.029457
2859.375000	-88.835640
2882.812500	-92.573914
2906.250000	-87.406143
2929.687500	-83.447327
2953.125000	-81.568810
2976.562500	-80.105614
3000.000000	-79.761642
3023.437500	-79.491035
3046.875000	-78.726212
3070.312500	-78.239388
3093.750000	-77.650780
3117.187500	-77.001816
3140.625000	-76.853790
3164.062500	-76.827423
3187.500000	-76.935226
3210.937500	-76.337723
3234.375000	-75.126770
3257.812500	-73.967575
3281.250000	-72.290207
3304.687500	-70.735153
3328.125000	-69.668091
3351.562500	-69.431007
3375.000000	-69.666862
3398.437500	-69.767975
3421.875000	-70.602943
3445.312500	-71.404907
3468.750000	-72.141312
3492.187500	-72.278358
3515.625000	-71.792801
3539.062500	-72.401749
3562.500000	-73.835251
3585.937500	-75.058266
3609.375000	-76.675751
3632.812500	-79.479645
3656.250000	-83.211845
3679.687500	-88.604797
3703.125000	-90.970543
3726.562500	-85.978333
3750.000000	-82.827766
3773.437500	-82.299286
3796.875000	-83.294586
3820.312500	-84.058769
3843.750000	-85.033440
3867.187500	-85.676643
3890.625000	-85.897789
3914.062500	-86.200966
3937.500000	-86.832748
3960.937500	-87.302612
3984.375000	-87.443077
4007.812500	-87.788643
4031.250000	-87.392151
4054.687500	-85.941887
4078.125000	-85.228355
4101.562500	-85.497917
4125.000000	-86.781494
4148.437500	-89.301918
4171.875000	-93.416710
4195.312500	-94.752518
4218.750000	-91.124657
4242.187500	-88.087143
4265.625000	-86.643272
4289.062500	-86.123779
4312.500000	-85.856964
4335.937500	-85.887390
4359.375000	-86.296944
4382.812500	-85.539330
4406.250000	-84.418907
4429.687500	-84.135025
4453.125000	-84.268372
4476.562500	-85.176247
4500.000000	-86.544586
4523.437500	-88.646347
4546.875000	-91.100945
4570.312500	-93.824974
4593.750000	-93.388924
4617.187500	-89.289398
4640.625000	-86.351906
4664.062500	-84.675163
4687.500000	-83.641212
4710.937500	-83.279900
4734.375000	-82.933754
4757.812500	-82.673401
4781.250000	-82.483292
4804.687500	-82.279610
4828.125000	-82.390854
4851.562500	-82.691376
4875.000000	-82.773193
4898.437500	-83.112129
4921.875000	-83.207901
4945.312500	-83.651176
4968.750000	-84.720924
4992.187500	-84.932343
5015.625000	-84.473106
5039.062500	-84.268288
5062.500000	-84.198982
5085.937500	-84.593155
5109.375000	-84.543289
5132.812500	-83.313866
5156.250000	-81.156120
5179.687500	-79.332901
5203.125000	-77.857063
5226.562500	-76.291222
5250.000000	-74.948860
5273.437500	-74.441345
5296.875000	-74.137527
5320.312500	-74.054420
5343.750000	-73.777245
5367.187500	-73.765953
5390.625000	-73.915947
5414.062500	-74.698799
5437.500000	-75.251427
5460.937500	-75.501488
5484.375000	-75.409546
5507.812500	-75.210732
5531.250000	-74.457962
5554.687500	-73.691460
5578.125000	-73.442528
5601.562500	-72.972023
5625.000000	-72.355186
5648.437500	-72.580452
5671.875000	-73.373039
5695.312500	-74.614281
5718.750000	-76.421562
5742.187500	-78.497337
5765.625000	-80.309753
5789.062500	-81.283539
5812.500000	-82.034134
5835.937500	-81.628441
5859.375000	-80.050789
5882.812500	-77.824554
5906.250000	-75.736588
5929.687500	-73.396240
5953.125000	-72.228485
5976.562500	-71.504425
6000.000000	-71.380844
6023.437500	-72.446312
6046.875000	-73.132317
6070.312500	-73.605042
6093.750000	-73.497826
6117.187500	-73.258217
6140.625000	-73.040779
6164.062500	-72.269920
6187.500000	-71.633095
6210.937500	-71.041344
6234.375000	-71.339859
6257.812500	-70.887726
6281.250000	-70.802681
6304.687500	-70.692947
6328.125000	-70.666443
6351.562500	-70.115997
6375.000000	-70.181168
6398.437500	-70.425079
6421.875000	-70.390488
6445.312500	-70.649994
6468.750000	-71.234131
6492.187500	-71.532730
6515.625000	-71.862915
6539.062500	-72.463669
6562.500000	-72.656380
6585.937500	-72.523972
6609.375000	-72.676361
6632.812500	-73.242096
6656.250000	-74.478554
6679.687500	-75.166252
6703.125000	-74.388802
6726.562500	-74.119621
6750.000000	-74.049484
6773.437500	-73.962997
6796.875000	-74.837006
6820.312500	-75.959267
6843.750000	-77.094612
6867.187500	-77.106277
6890.625000	-76.562233
6914.062500	-75.110031
6937.500000	-73.453819
6960.937500	-72.206100
6984.375000	-71.096863
7007.812500	-70.021576
7031.250000	-69.266129
7054.687500	-68.723213
7078.125000	-68.275543
7101.562500	-68.047646
7125.000000	-68.254692
7148.437500	-68.986115
7171.875000	-69.853973
7195.312500	-70.006302
7218.750000	-70.830025
7242.187500	-71.638992
7265.625000	-72.141685
7289.062500	-72.444450
7312.500000	-73.128258
7335.937500	-73.528122
7359.375000	-74.245560
7382.812500	-74.614769
7406.250000	-75.242516
7429.687500	-76.458282
7453.125000	-77.828911
7476.562500	-79.719185
7500.000000	-81.839874
7523.437500	-83.690659
7546.875000	-84.792419
7570.312500	-84.369865
7593.750000	-83.900665
7617.187500	-83.111053
7640.625000	-82.574127
7664.062500	-82.388931
7687.500000	-82.732018
7710.937500	-82.977348
7734.375000	-83.420486
7757.812500	-83.170219
7781.250000	-83.064224
7804.687500	-83.075989
7828.125000	-82.369102
7851.562500	-81.734657
7875.000000	-80.674759
7898.437500	-79.777428
7921.875000	-78.834908
7945.312500	-78.073830
7968.750000	-77.829605
7992.187500	-77.801956
8015.625000	-77.631454
8039.062500	-77.603539
8062.500000	-77.220047
8085.937500	-77.002457
8109.375000	-77.434540
8132.812500	-77.619118
8156.250000	-78.193321
8179.687500	-78.473373
8203.125000	-79.268921
8226.562500	-79.724503
8250.000000	-79.910294
8273.437500	-80.433426
8296.875000	-80.921516
8320.312500	-81.639687
8343.750000	-81.601715
8367.187500	-81.598518
8390.625000	-81.745247
8414.062500	-81.577515
8437.500000	-82.199379
8460.937500	-83.201988
8484.375000	-84.129128
8507.812500	-85.424446
8531.250000	-86.391220
8554.687500	-88.546364
8578.125000	-89.853218
8601.562500	-90.365799
8625.000000	-90.385887
8648.437500	-89.369423
8671.875000	-88.200706
8695.312500	-87.584373
8718.750000	-86.980652
8742.187500	-87.039345
8765.625000	-86.411133
8789.062500	-85.953697
8812.500000	-85.929497
8835.937500	-85.830391
8859.375000	-86.041847
8882.812500	-86.392586
8906.250000	-86.791916
8929.687500	-87.358742
8953.125000	-87.922249
8976.562500	-88.235474
9000.000000	-88.157310
9023.437500	-88.564888
9046.875000	-88.948730
9070.312500	-88.938332
9093.750000	-89.453117
9117.187500	-89.785408
9140.625000	-89.760529
9164.062500	-89.831871
9187.500000	-89.801193
9210.937500	-90.261055
9234.375000	-90.403030
9257.812500	-90.248398
9281.250000	-89.574516
9304.687500	-90.011047
9328.125000	-90.039551
9351.562500	-89.973129
9375.000000	-90.530708
9398.437500	-90.947197
9421.875000	-91.539452
9445.312500	-92.233177
9468.750000	-92.808113
9492.187500	-93.861008
9515.625000	-94.695259
9539.062500	-95.755096
9562.500000	-96.921555
9585.937500	-99.261147
9609.375000	-101.088211
9632.812500	-102.886246
9656.250000	-102.801201
9679.687500	-103.061584
9703.125000	-103.595924
9726.562500	-102.616058
9750.000000	-101.775650
9773.437500	-101.702515
9796.875000	-100.895370
9820.312500	-100.114677
9843.750000	-99.637558
9867.187500	-99.918755
9890.625000	-101.320564
9914.062500	-102.012215
9937.500000	-99.427330
9960.937500	-100.347939
9984.375000	-103.580147
10007.812500	-102.782425
10031.250000	-98.323990
10054.687500	-96.652222
10078.125000	-100.205551
10101.562500	-100.687996
10125.000000	-99.556320
10148.437500	-97.770653
10171.875000	-96.944695
10195.312500	-95.979385
10218.750000	-94.744759
10242.187500	-93.594284
10265.625000	-92.237267
10289.062500	-91.172333
10312.500000	-90.345734
10335.937500	-90.153137
10359.375000	-89.836975
10382.812500	-89.881325
10406.250000	-89.843102
10429.687500	-89.253624
10453.125000	-89.370789
10476.562500	-89.294426
10500.000000	-89.561829
10523.437500	-90.117676
10546.875000	-90.411896
10570.312500	-91.064857
10593.750000	-92.008682
10617.187500	-92.889015
10640.625000	-93.812057
10664.062500	-94.984581
10687.500000	-96.232536
10710.937500	-97.011986
10734.375000	-97.654480
10757.812500	-99.081017
10781.250000	-100.617966
10804.687500	-102.321655
10828.125000	-103.054520
10851.562500	-102.843758
10875.000000	-102.733078
10898.437500	-103.427696
10921.875000	-103.420517
10945.312500	-102.341660
10968.750000	-101.046814
10992.187500	-100.028946
11015.625000	-98.203369
11039.062500	-96.773369
11062.500000	-95.954254
11085.937500	-95.553238
11109.375000	-95.516106
11132.812500	-95.410667
11156.250000	-95.234879
11179.687500	-95.994553
11203.125000	-97.447418
11226.562500	-98.137886
11250.000000	-99.896095
11273.437500	-102.049782
11296.875000	-103.825645
11320.312500	-105.777878
11343.750000	-106.964249
11367.187500	-104.794518
11390.625000	-107.457779
11414.062500	-108.633385
11437.500000	-106.911705
11460.937500	-104.201721
11484.375000	-102.389099
11507.812500	-101.078171
11531.250000	-99.683441
11554.687500	-98.856964
11578.125000	-98.853615
11601.562500	-98.215721
11625.000000	-97.065834
11648.437500	-95.388962
11671.875000	-93.336388
11695.312500	-91.390427
11718.750000	-89.944382
11742.187500	-88.476517
11765.625000	-86.968964
11789.062500	-86.160736
11812.500000	-84.897606
11835.937500	-83.884674
11859.375000	-83.130188
11882.812500	-82.802544
11906.250000	-82.219849
11929.687500	-81.919617
11953.125000	-81.997284
11976.562500	-81.901695
12000.000000	-81.695808
12023.437500	-81.672905
12046.875000	-81.519501
12070.312500	-81.935989
12093.750000	-81.809441
12117.187500	-81.459648
12140.625000	-81.551567
12164.062500	-81.206497
12187.500000	-80.857674
12210.937500	-80.486946
12234.375000	-80.065620
12257.812500	-79.916656
12281.250000	-79.799515
12304.687500	-79.866394
12328.125000	-79.570992
12351.562500	-79.769173
12375.000000	-80.162842
12398.437500	-80.443687
12421.875000	-80.540138
12445.312500	-81.002747
12468.750000	-81.545036
12492.187500	-81.743507
12515.625000	-82.623154
12539.062500	-83.826767
12562.500000	-84.242432
12585.937500	-84.407745
12609.375000	-84.790169
12632.812500	-84.719528
12656.250000	-84.475571
12679.687500	-83.855881
12703.125000	-83.620010
12726.562500	-83.532585
12750.000000	-82.989197
12773.437500	-82.562653
12796.875000	-82.127579
12820.312500	-81.431152
12843.750000	-80.828339
12867.187500	-80.045815
12890.625000	-79.289337
12914.062500	-78.933846
12937.500000	-78.537987
12960.937500	-77.821945
12984.375000	-77.521423
13007.812500	-77.441689
13031.250000	-77.396461
13054.687500	-76.987282
13078.125000	-76.965271
13101.562500	-77.122871
13125.000000	-77.056892
13148.437500	-76.934914
13171.875000	-76.969200
13195.312500	-76.804230
13218.750000	-76.613754
13242.187500	-76.816978
13265.625000	-76.638527
13289.062500	-76.909981
13312.500000	-77.404320
13335.937500	-77.669327
13359.375000	-77.745918
13382.812500	-78.234268
13406.250000	-78.376137
13429.687500	-78.641510
13453.125000	-79.434120
13476.562500	-80.302963
13500.000000	-80.449699
13523.437500	-80.997345
13546.875000	-82.224213
13570.312500	-82.389717
13593.750000	-82.464203
13617.187500	-83.035995
13640.625000	-82.751434
13664.062500	-82.295403
13687.500000	-81.684013
13710.937500	-80.994446
13734.375000	-80.218040
13757.812500	-79.455299
13781.250000	-78.852654
13804.687500	-78.123871
13828.125000	-77.296646
13851.562500	-76.772629
13875.000000	-76.457451
13898.437500	-75.807014
13921.875000	-76.000252
13945.312500	-75.545280
13968.750000	-75.232292
13992.187500	-75.303169
14015.625000	-75.016769
14039.062500	-74.642776
14062.500000	-74.815018
14085.937500	-74.974945
14109.375000	-74.767960
14132.812500	-74.645142
14156.250000	-74.452850
14179.687500	-74.490623
14203.125000	-74.700737
14226.562500	-74.345573
14250.000000	-74.113579
14273.437500	-74.505997
14296.875000	-75.051468
14320.312500	-75.038162
14343.750000	-74.937180
14367.187500	-74.968918
14390.625000	-74.773079
14414.062500	-75.345375
14437.500000	-75.383415
14460.937500	-75.035049
14484.375000	-75.251747
14507.812500	-75.522797
14531.250000	-75.624603
14554.687500	-75.264999
14578.125000	-75.562637
14601.562500	-75.966362
14625.000000	-76.254639
14648.437500	-76.497047
14671.875000	-76.858528
14695.312500	-76.664268
14718.750000	-76.703690
14742.187500	-76.904045
14765.625000	-76.930061
14789.062500	-77.353333
14812.500000	-77.492485
14835.937500	-77.469643
14859.375000	-77.266487
14882.812500	-77.406349
14906.250000	-77.792107
14929.687500	-78.038414
14953.125000	-78.058723
14976.562500	-78.089355
15000.000000	-77.916588
15023.437500	-78.261398
15046.875000	-78.035759
15070.312500	-78.253258
15093.750000	-77.974892
15117.187500	-78.110458
15140.625000	-78.462959
15164.062500	-78.878197
15187.500000	-78.882584
15210.937500	-79.318268
15234.375000	-79.503349
15257.812500	-79.725082
15281.250000	-80.545258
15304.687500	-80.945503
15328.125000	-81.386337
15351.562500	-81.619614
15375.000000	-81.993256
15398.437500	-82.303764
15421.875000	-82.608582
15445.312500	-83.032768
15468.750000	-83.333321
15492.187500	-83.775543
15515.625000	-83.878380
15539.062500	-84.203773
15562.500000	-84.268066
15585.937500	-84.581230
15609.375000	-84.609535
15632.812500	-84.875641
15656.250000	-85.251114
15679.687500	-85.626694
15703.125000	-85.745079
15726.562500	-86.094398
15750.000000	-86.142265
15773.437500	-86.635773
15796.875000	-86.899086
15820.312500	-87.266983
15843.750000	-87.135612
15867.187500	-87.593033
15890.625000	-88.302582
15914.062500	-88.933434
15937.500000	-89.293671
15960.937500	-89.639412
15984.375000	-90.275398
16007.812500	-90.941734
16031.250000	-91.892670
16054.687500	-92.500740
16078.125000	-93.606697
16101.562500	-94.941643
16125.000000	-95.932602
16148.437500	-96.946342
16171.875000	-97.313820
16195.312500	-98.770653
16218.750000	-100.881027
16242.187500	-101.965576
16265.625000	-100.513893
16289.062500	-101.147606
16312.500000	-103.496193
16335.937500	-103.403366
16359.375000	-101.715622
16382.812500	-100.199516
16406.250000	-101.651398
16429.687500	-101.674446
16453.125000	-100.810707
16476.562500	-99.853722
16500.000000	-100.365372
16523.437500	-100.325630
16546.875000	-100.093559
16570.312500	-99.232269
16593.750000	-99.891106
16617.187500	-100.499252
16640.625000	-100.674622
16664.062500	-100.493828
16687.500000	-100.762138
16710.937500	-101.004593
16734.375000	-101.217842
16757.812500	-100.965202
16781.250000	-100.463638
16804.687500	-101.572876
16828.125000	-101.495239
16851.562500	-100.966667
16875.000000	-99.353165
16898.437500	-100.601707
16921.875000	-100.617737
16945.312500	-99.855278
16968.750000	-99.059914
16992.187500	-99.353401
17015.625000	-99.377678
17039.062500	-99.356728
17062.500000	-98.552437
17085.937500	-98.273216
17109.375000	-99.911644
17132.812500	-100.377579
17156.250000	-99.617058
17179.687500	-98.575874
17203.125000	-100.714272
17226.562500	-101.987617
17250.000000	-101.664345
17273.437500	-99.834396
17296.875000	-100.962257
17320.312500	-102.152397
17343.750000	-101.685387
17367.187500	-99.946739
17390.625000	-99.928734
17414.062500	-100.620049
17437.500000	-100.059929
17460.937500	-99.050728
17484.375000	-98.232552
17507.812500	-98.824524
17531.250000	-98.643890
17554.687500	-97.827881
17578.125000	-96.865379
17601.562500	-97.310944
17625.000000	-97.329170
17648.437500	-97.511986
17671.875000	-96.576340
17695.312500	-96.631348
17718.750000	-97.187027
17742.187500	-97.580795
17765.625000	-97.116089
17789.062500	-96.715210
17812.500000	-97.124374
17835.937500	-97.314789
17859.375000	-96.947144
17882.812500	-96.290840
17906.250000	-96.895256
17929.687500	-97.064362
17953.125000	-96.425728
17976.562500	-92.335579
18000.000000	-93.583633
18023.437500	-97.514931
18046.875000	-98.163177
18070.312500	-96.673576
18093.750000	-96.927742
18117.187500	-98.101021
18140.625000	-98.763611
18164.062500	-98.131790
18187.500000	-97.438148
18210.937500	-98.696754
18234.375000	-98.531845
18257.812500	-98.579720
18281.250000	-98.011765
18304.687500	-99.024727
18328.125000	-98.788078
18351.562500	-98.330803
18375.000000	-96.777145
18398.437500	-97.778175
18421.875000	-98.477936
18445.312500	-98.111412
18468.750000	-96.601830
18492.187500	-96.824356
18515.625000	-98.737961
18539.062500	-98.382393
18562.500000	-97.370667
18585.937500	-96.679321
18609.375000	-98.660339
18632.812500	-98.956787
18656.250000	-98.189384
18679.687500	-96.358429
18703.125000	-98.365440
18726.562500	-98.792160
18750.000000	-98.924454
18773.437500	-97.666557
18796.875000	-98.258072
18820.312500	-98.878784
18843.750000	-98.994438
18867.187500	-96.994652
18890.625000	-96.694283
18914.062500	-98.620415
18937.500000	-98.542183
18960.937500	-97.589516
18984.375000	-96.461136
19007.812500	-98.390816
19031.250000	-98.368477
19054.687500	-98.357483
19078.125000	-96.981026
19101.562500	-98.160461
19125.000000	-98.576523
19148.437500	-98.559677
19171.875000	-96.459564
19195.312500	-97.017197
19218.750000	-98.403290
19242.187500	-97.899437
19265.625000	-97.458282
19289.062500	-97.214668
19312.500000	-98.511887
19335.937500	-98.274788
19359.375000	-97.331306
19382.812500	-95.517754
19406.250000	-97.500534
19429.687500	-98.021049
19453.125000	-97.997307
19476.562500	-95.636887
19500.000000	-96.787025
19523.437500	-97.950333
19546.875000	-98.015831
19570.312500	-97.262497
19593.750000	-97.456322
19617.187500	-98.287743
19640.625000	-98.025169
19664.062500	-98.081184
19687.500000	-97.417870
19710.937500	-98.355301
19734.375000	-98.455940
19757.812500	-98.184326
19781.250000	-97.228500
19804.687500	-98.033455
19828.125000	-98.315643
19851.562500	-98.054443
19875.000000	-97.102493
19898.437500	-97.750938
19921.875000	-98.507957
19945.312500	-98.646797
19968.750000	-98.447845
19992.187500	-98.339478
20015.625000	-99.053871
20039.062500	-98.770081
20062.500000	-98.878471
20085.937500	-98.920860
20109.375000	-99.569954
20132.812500	-99.545380
20156.250000	-99.357071
20179.687500	-98.043655
20203.125000	-99.606155
20226.562500	-100.052917
20250.000000	-100.145943
20273.437500	-99.726570
20296.875000	-100.058815
20320.312500	-100.747498
20343.750000	-100.778503
20367.187500	-100.869347
20390.625000	-101.046486
20414.062500	-101.362938
20437.500000	-101.203598
20460.937500	-101.868492
20484.375000	-101.375549
20507.812500	-102.155365
20531.250000	-102.444786
20554.687500	-102.520782
20578.125000	-101.109840
20601.562500	-101.763428
20625.000000	-102.691559
20648.437500	-102.888969
20671.875000	-102.088799
20695.312500	-102.098061
20718.750000	-103.262802
20742.187500	-103.447014
20765.625000	-103.240982
20789.062500	-103.120346
20812.500000	-103.506775
20835.937500	-103.735588
20859.375000	-103.738220
20882.812500	-103.335670
20906.250000	-104.101067
20929.687500	-104.197830
20953.125000	-103.971481
20976.562500	-103.916862
21000.000000	-104.129990
21023.437500	-104.478043
21046.875000	-104.260735
21070.312500	-103.840034
21093.750000	-103.578918
21117.187500	-104.563316
21140.625000	-104.693489
21164.062500	-104.680328
21187.500000	-104.349236
21210.937500	-104.960457
21234.375000	-105.175842
21257.812500	-105.238182
21281.250000	-104.638809
21304.687500	-105.006165
21328.125000	-105.187920
21351.562500	-105.360229
21375.000000	-105.049721
21398.437500	-105.325020
21421.875000	-105.493553
21445.312500	-105.819733
21468.750000	-105.833611
21492.187500	-105.479095
21515.625000	-105.886574
21539.062500	-106.040047
21562.500000	-106.157394
21585.937500	-105.757095
21609.375000	-105.702171
21632.812500	-105.446434
21656.250000	-105.770439
21679.687500	-105.655243
21703.125000	-106.071281
21726.562500	-106.208778
21750.000000	-106.315308
21773.437500	-105.959679
21796.875000	-106.068466
21820.312500	-106.302628
21843.750000	-106.536079
21867.187500	-106.045265
21890.625000	-105.699425
21914.062500	-106.597992
21937.500000	-106.788383
21960.937500	-106.678177
21984.375000	-106.269096
22007.812500	-106.669685
22031.250000	-106.661476
22054.687500	-106.868423
22078.125000	-106.550438
22101.562500	-106.512451
22125.000000	-106.658440
22148.437500	-107.082397
22171.875000	-107.076920
22195.312500	-106.996613
22218.750000	-107.140541
22242.187500	-107.231384
22265.625000	-107.115578
22289.062500	-107.241653
22312.500000	-107.062073
22335.937500	-106.851486
22359.375000	-106.989983
22382.812500	-106.283287
22406.250000	-106.710243
22429.687500	-106.800972
22453.125000	-107.045624
22476.562500	-106.920509
22500.000000	-106.901070
22523.437500	-107.137840
22546.875000	-107.243835
22570.312500	-106.561821
22593.750000	-105.478973
22617.187500	-107.189880
22640.625000	-107.271385
22664.062500	-106.984833
22687.500000	-106.561798
22710.937500	-107.043526
22734.375000	-107.408722
22757.812500	-107.484718
22781.250000	-107.267509
22804.687500	-107.448044
22828.125000	-107.710678
22851.562500	-107.831886
22875.000000	-107.508865
22898.437500	-107.607513
22921.875000	-107.582726
22945.312500	-107.652550
22968.750000	-107.317795
22992.187500	-107.521629
23015.625000	-107.855774
23039.062500	-107.915657
23062.500000	-107.851479
23085.937500	-107.635094
23109.375000	-107.897278
23132.812500	-107.822319
23156.250000	-107.710930
23179.687500	-107.454376
23203.125000	-107.533752
23226.562500	-107.774803
23250.000000	-107.844986
23273.437500	-107.676353
23296.875000	-107.749825
23320.312500	-107.853104
23343.750000	-107.941025
23367.187500	-108.114204
23390.625000	-107.723816
23414.062500	-107.827713
23437.500000	-107.752640
23460.937500	-107.838173
23484.375000	-107.651337
23507.812500	-107.564201
23531.250000	-107.328384
23554.687500	-107.628517
23578.125000	-107.656197
23601.562500	-107.880730
23625.000000	-107.826859
23648.437500	-107.764511
23671.875000	-108.009445
23695.312500	-108.191635
23718.750000	-107.839920
23742.187500	-107.843903
23765.625000	-107.978485
23789.062500	-107.709816
23812.500000	-108.046440
23835.937500	-107.960777
23859.375000	-108.080185
23882.812500	-108.125679
23906.250000	-108.162643
23929.687500	-108.094711
23953.125000	-108.080582
23976.562500	-107.860306
