Frequency (Hz)	Level (dB)
23.437500	-51.971462
46.875000	-44.170052
70.312500	-48.492989
93.750000	-64.892471
117.187500	-67.894890
140.625000	-76.003784
164.062500	-77.184479
187.500000	-76.544746
210.937500	-76.893707
234.375000	-81.142303
257.812500	-77.913155
281.250000	-73.715073
304.687500	-71.910027
328.125000	-72.333618
351.562500	-68.427307
375.000000	-74.840645
398.437500	-78.643845
421.875000	-79.193726
445.312500	-72.638100
468.750000	-75.744156
492.187500	-82.744568
515.625000	-86.263824
539.062500	-83.959900
562.500000	-84.389679
585.937500	-87.250740
609.375000	-84.258530
632.812500	-74.187019
656.250000	-71.679771
679.687500	-80.969406
703.125000	-87.190544
726.562500	-83.354523
750.000000	-78.603798
773.437500	-83.776161
796.875000	-84.742722
820.312500	-87.739464
843.750000	-87.111420
867.187500	-89.201645
890.625000	-91.731308
914.062500	-87.590500
937.500000	-74.935036
960.937500	-74.667961
984.375000	-86.055740
1007.812500	-88.628738
1031.250000	-91.910072
1054.687500	-90.426750
1078.125000	-94.110947
1101.562500	-94.123444
1125.000000	-92.410591
1148.437500	-87.341454
1171.875000	-91.309105
1195.312500	-93.344048
1218.750000	-88.720123
1242.187500	-82.230766
1265.625000	-83.809395
1289.062500	-89.407593
1312.500000	-91.410873
1335.937500	-89.563713
1359.375000	-89.227493
1382.812500	-96.119987
1406.250000	-96.565063
1429.687500	-99.733757
1453.125000	-99.396652
1476.562500	-98.632088
1500.000000	-94.649033
1523.437500	-96.729630
1546.875000	-91.717567
1570.312500	-92.761757
1593.750000	-89.396133
1617.187500	-88.015366
1640.625000	-87.924744
1664.062500	-88.506577
1687.500000	-88.414421
1710.937500	-88.463951
1734.375000	-86.010681
1757.812500	-84.397285
1781.250000	-85.547791
1804.687500	-83.874725
1828.125000	-82.247215
1851.562500	-81.308304
1875.000000	-80.267685
1898.437500	-79.115585
1921.875000	-77.557579
1945.312500	-75.213272
1968.750000	-72.730583
1992.187500	-69.695930
2015.625000	-66.226799
2039.062500	-62.576538
2062.500000	-60.939533
2085.937500	-60.861519
2109.375000	-61.128220
2132.812500	-61.996914
2156.250000	-64.149925
2179.687500	-66.672264
2203.125000	-68.387489
2226.562500	-70.082512
2250.000000	-71.943588
2273.437500	-72.776680
2296.875000	-73.577393
2320.312500	-74.500404
2343.750000	-75.137100
2367.187500	-75.872139
2390.625000	-75.982361
2414.062500	-76.066498
2437.500000	-76.737206
2460.937500	-77.925179
2484.375000	-79.237907
2507.812500	-79.913963
2531.250000	-80.273651
2554.687500	-80.919823
2578.125000	-81.267075
2601.562500	-81.783844
2625.000000	-82.692574
2648.437500	-82.558800
2671.875000	-83.133881
2695.312500	-84.413788
2718.750000	-85.436501
2742.187500	-86.763901
2765.625000	-86.827415
2789.062500	-85.526276
2812.500000	-84.643486
2835.937500	-84.257378
2859.375000	-84.106491
2882.812500	-84.278511
2906.250000	-85.025185
2929.687500	-87.195686
2953.125000	-89.066231
2976.562500	-88.727798
3000.000000	-88.264137
3023.437500	-86.558662
3046.875000	-84.330399
3070.312500	-83.265480
3093.750000	-82.309189
3117.187500	-82.647247
3140.625000	-84.775085
3164.062500	-88.015091
3187.500000	-93.887657
3210.937500	-97.318283
3234.375000	-89.030006
3257.812500	-82.090111
3281.250000	-76.773010
3304.687500	-72.577980
3328.125000	-70.050735
3351.562500	-69.818062
3375.000000	-71.077400
3398.437500	-72.512047
3421.875000	-73.476891
3445.312500	-73.575836
3468.750000	-74.195381
3492.187500	-74.861885
3515.625000	-75.245316
3539.062500	-76.129463
3562.500000	-77.238319
3585.937500	-77.810280
3609.375000	-78.972229
3632.812500	-80.883049
3656.250000	-82.094124
3679.687500	-82.687660
3703.125000	-83.702843
3726.562500	-84.187462
3750.000000	-83.911957
3773.437500	-84.301376
3796.875000	-84.906487
3820.312500	-84.797173
3843.750000	-84.252991
3867.187500	-83.426338
3890.625000	-82.216759
3914.062500	-81.311760
3937.500000	-80.813675
3960.937500	-80.266327
3984.375000	-79.683662
4007.812500	-79.469864
4031.250000	-80.117065
4054.687500	-82.593674
4078.125000	-87.901070
4101.562500	-91.389610
4125.000000	-86.204849
4148.437500	-82.273468
4171.875000	-80.224144
4195.312500	-79.413475
4218.750000	-78.694687
4242.187500	-78.358284
4265.625000	-78.856361
4289.062500	-79.980865
4312.500000	-81.038185
4335.937500	-81.546532
4359.375000	-82.408791
4382.812500	-83.751740
4406.250000	-85.728920
4429.687500	-88.350563
4453.125000	-88.753822
4476.562500	-87.458839
4500.000000	-86.412994
4523.437500	-86.142265
4546.875000	-85.927803
4570.312500	-85.882851
4593.750000	-85.811638
4617.187500	-85.458344
4640.625000	-85.606964
4664.062500	-86.161064
4687.500000	-86.795059
4710.937500	-87.392029
4734.375000	-87.871819
4757.812500	-88.123924
4781.250000	-88.106590
4804.687500	-87.712143
4828.125000	-87.829697
4851.562500	-88.377205
4875.000000	-89.486084
4898.437500	-91.331642
4921.875000	-92.688606
4945.312500	-93.673798
4968.750000	-94.759201
4992.187500	-95.706108
5015.625000	-96.502136
5039.062500	-96.837929
5062.500000	-96.361992
5085.937500	-95.884857
5109.375000	-95.053574
5132.812500	-92.137840
5156.250000	-88.741188
5179.687500	-86.683441
5203.125000	-85.481674
5226.562500	-84.780701
5250.000000	-84.903328
5273.437500	-86.273323
5296.875000	-87.423004
5320.312500	-88.453751
5343.750000	-89.073357
5367.187500	-90.129753
5390.625000	-91.243622
5414.062500	-92.870125
5437.500000	-92.979080
5460.937500	-90.657501
5484.375000	-89.326408
5507.812500	-89.184799
5531.250000	-89.331299
5554.687500	-88.837982
5578.125000	-88.110374
5601.562500	-85.123260
5625.000000	-81.349098
5648.437500	-78.189758
5671.875000	-75.412987
5695.312500	-73.198463
5718.750000	-71.860832
5742.187500	-70.618721
5765.625000	-69.818596
5789.062500	-69.273804
5812.500000	-69.272575
5835.937500	-69.366440
5859.375000	-69.107849
5882.812500	-69.103935
5906.250000	-69.668694
5929.687500	-70.227554
5953.125000	-71.594254
5976.562500	-73.208008
6000.000000	-74.087784
6023.437500	-74.329353
6046.875000	-73.514687
6070.312500	-72.198952
6093.750000	-70.627159
6117.187500	-69.481674
6140.625000	-68.844193
6164.062500	-68.973068
6187.500000	-69.476044
6210.937500	-69.985619
6234.375000	-71.477539
6257.812500	-72.344368
6281.250000	-72.950386
6304.687500	-73.864326
6328.125000	-74.225403
6351.562500	-73.887314
6375.000000	-73.831497
6398.437500	-73.406937
6421.875000	-72.982117
6445.312500	-72.687416
6468.750000	-73.020142
6492.187500	-73.394775
6515.625000	-74.045158
6539.062500	-75.273315
6562.500000	-76.163841
6585.937500	-76.981018
6609.375000	-77.625488
6632.812500	-78.220657
6656.250000	-78.733818
6679.687500	-78.511391
6703.125000	-77.499352
6726.562500	-77.317055
6750.000000	-77.555740
6773.437500	-77.518135
6796.875000	-77.904572
6820.312500	-78.088394
6843.750000	-78.361374
6867.187500	-78.103683
6890.625000	-78.174896
6914.062500	-77.965981
6937.500000	-77.631332
6960.937500	-77.767006
6984.375000	-78.029457
7007.812500	-78.315125
7031.250000	-78.571182
7054.687500	-79.016167
7078.125000	-79.248688
7101.562500	-79.593117
7125.000000	-80.331284
7148.437500	-81.457222
7171.875000	-82.725433
7195.312500	-83.393486
7218.750000	-84.468155
7242.187500	-86.170357
7265.625000	-87.662621
7289.062500	-89.000267
7312.500000	-90.081154
7335.937500	-90.624718
7359.375000	-91.389816
7382.812500	-91.522568
7406.250000	-91.412682
7429.687500	-91.537331
7453.125000	-91.336266
7476.562500	-91.083237
7500.000000	-90.180931
7523.437500	-88.497353
7546.875000	-87.136459
7570.312500	-85.933075
7593.750000	-85.874420
7617.187500	-85.525688
7640.625000	-85.809860
7664.062500	-86.067497
7687.500000	-86.940292
7710.937500	-88.344383
7734.375000	-90.188538
7757.812500	-92.024628
7781.250000	-94.322876
7804.687500	-97.143204
7828.125000	-99.133385
7851.562500	-99.921631
7875.000000	-98.640869
7898.437500	-96.886528
7921.875000	-95.575722
7945.312500	-94.385796
7968.750000	-94.266060
7992.187500	-94.840042
8015.625000	-95.882019
8039.062500	-97.580521
8062.500000	-100.320381
8085.937500	-102.809723
8109.375000	-102.069252
8132.812500	-100.311905
8156.250000	-99.970879
8179.687500	-100.421928
8203.125000	-100.871666
8226.562500	-100.948372
8250.000000	-100.842575
8273.437500	-101.017990
8296.875000	-100.532028
8320.312500	-100.137817
8343.750000	-98.881310
8367.187500	-98.387924
8390.625000	-97.617638
8414.062500	-96.560410
8437.500000	-96.087799
8460.937500	-95.188721
8484.375000	-94.041763
8507.812500	-92.622894
8531.250000	-91.086555
8554.687500	-90.619499
8578.125000	-89.437836
8601.562500	-88.640266
8625.000000	-88.441467
8648.437500	-88.217171
8671.875000	-88.112846
8695.312500	-88.542130
8718.750000	-89.312981
8742.187500	-90.765434
8765.625000	-91.563774
8789.062500	-92.053658
8812.500000	-92.665497
8835.937500	-92.694122
8859.375000	-92.547081
8882.812500	-92.561203
8906.250000	-92.555771
8929.687500	-92.410011
8953.125000	-92.267151
8976.562500	-92.024422
9000.000000	-91.586266
9023.437500	-91.775002
9046.875000	-91.797478
9070.312500	-91.622917
9093.750000	-91.709656
9117.187500	-91.469368
9140.625000	-91.098869
9164.062500	-91.490532
9187.500000	-91.977463
9210.937500	-93.286026
9234.375000	-94.898033
9257.812500	-96.312027
9281.250000	-96.375916
9304.687500	-95.954506
9328.125000	-94.093246
9351.562500	-92.309746
9375.000000	-91.053162
9398.437500	-89.961029
9421.875000	-89.628288
9445.312500	-89.544548
9468.750000	-89.551926
9492.187500	-90.001022
9515.625000	-90.361824
9539.062500	-90.907684
9562.500000	-91.815674
9585.937500	-93.225296
9609.375000	-93.845627
9632.812500	-93.983864
9656.250000	-93.053917
9679.687500	-92.547287
9703.125000	-92.006676
9726.562500	-91.354919
9750.000000	-90.696228
9773.437500	-90.163269
9796.875000	-89.448586
9820.312500	-88.853310
9843.750000	-88.598969
9867.187500	-88.660004
9890.625000	-88.574287
9914.062500	-88.601677
9937.500000	-88.174469
9960.937500	-88.239403
9984.375000	-88.600258
10007.812500	-88.584503
10031.250000	-89.062469
10054.687500	-89.363846
10078.125000	-89.914932
10101.562500	-90.281288
10125.000000	-90.104813
10148.437500	-89.578300
10171.875000	-89.557899
10195.312500	-89.176971
10218.750000	-88.466682
10242.187500	-87.617142
10265.625000	-86.742012
10289.062500	-85.863106
10312.500000	-85.048576
10335.937500	-84.928497
10359.375000	-84.928566
10382.812500	-84.971878
10406.250000	-84.746910
10429.687500	-84.559433
10453.125000	-84.887299
10476.562500	-84.943161
10500.000000	-85.194122
10523.437500	-86.164719
10546.875000	-86.860542
10570.312500	-87.771881
10593.750000	-89.000366
10617.187500	-90.185394
10640.625000	-91.405830
10664.062500	-92.506271
10687.500000	-92.559242
10710.937500	-91.677078
10734.375000	-91.055054
10757.812500	-90.913918
10781.250000	-90.287277
10804.687500	-90.191322
10828.125000	-90.221581
10851.562500	-89.993546
10875.000000	-90.520065
10898.437500	-90.868599
10921.875000	-91.685928
10945.312500	-92.998840
10968.750000	-94.852577
10992.187500	-96.989182
11015.625000	-98.907707
11039.062500	-101.276855
11062.500000	-103.756989
11085.937500	-104.021408
11109.375000	-102.327255
11132.812500	-99.378059
11156.250000	-96.871628
11179.687500	-94.719749
11203.125000	-92.756996
11226.562500	-90.209427
11250.000000	-88.855949
11273.437500	-87.672775
11296.875000	-86.340065
11320.312500	-85.444481
11343.750000	-84.500725
11367.187500	-83.673538
11390.625000	-82.752007
11414.062500	-82.349228
11437.500000	-82.068176
11460.937500	-81.630463
11484.375000	-80.943893
11507.812500	-80.709122
11531.250000	-80.357330
11554.687500	-79.855026
11578.125000	-80.251381
11601.562500	-79.962074
11625.000000	-79.652809
11648.437500	-79.603188
11671.875000	-79.685280
11695.312500	-79.573570
11718.750000	-79.833084
11742.187500	-79.990807
11765.625000	-79.963120
11789.062500	-80.466805
11812.500000	-80.439880
11835.937500	-80.418465
11859.375000	-80.639709
11882.812500	-81.199272
11906.250000	-81.477577
11929.687500	-81.979935
11953.125000	-82.644791
11976.562500	-83.252937
12000.000000	-83.613792
12023.437500	-83.888550
12046.875000	-84.084366
12070.312500	-84.524529
12093.750000	-84.690094
12117.187500	-84.209618
12140.625000	-84.317406
12164.062500	-83.930031
12187.500000	-83.709221
12210.937500	-83.298233
12234.375000	-83.180069
12257.812500	-83.056877
12281.250000	-83.165169
12304.687500	-83.259392
12328.125000	-83.250221
12351.562500	-83.279716
12375.000000	-83.590469
12398.437500	-83.593605
12421.875000	-83.432678
12445.312500	-83.669411
12468.750000	-83.952408
12492.187500	-83.961006
12515.625000	-84.689095
12539.062500	-85.815193
12562.500000	-86.467735
12585.937500	-86.939079
12609.375000	-87.496857
12632.812500	-87.410057
12656.250000	-87.210236
12679.687500	-86.497742
12703.125000	-86.404755
12726.562500	-86.756943
12750.000000	-86.826729
12773.437500	-87.333931
12796.875000	-88.102005
12820.312500	-88.917419
12843.750000	-90.111351
12867.187500	-91.073830
12890.625000	-92.221855
12914.062500	-93.522919
12937.500000	-93.882385
12960.937500	-93.662804
12984.375000	-93.111023
13007.812500	-92.319229
13031.250000	-91.089195
13054.687500	-89.701721
13078.125000	-88.992493
13101.562500	-88.357048
13125.000000	-87.257233
13148.437500	-86.311920
13171.875000	-85.542618
13195.312500	-84.522827
13218.750000	-83.773979
13242.187500	-83.453377
13265.625000	-82.818848
13289.062500	-82.576828
13312.500000	-82.622398
13335.937500	-82.586029
13359.375000	-82.502869
13382.812500	-82.788849
13406.250000	-82.796997
13429.687500	-82.842323
13453.125000	-83.448425
13476.562500	-84.192322
13500.000000	-84.241966
13523.437500	-84.592484
13546.875000	-85.515755
13570.312500	-85.495827
13593.750000	-85.489937
13617.187500	-85.843788
13640.625000	-86.253685
13664.062500	-86.334839
13687.500000	-86.427902
13710.937500	-86.488190
13734.375000	-86.482086
13757.812500	-86.679390
13781.250000	-86.765656
13804.687500	-86.980515
13828.125000	-87.028549
13851.562500	-87.505737
13875.000000	-88.118340
13898.437500	-88.261734
13921.875000	-89.453705
13945.312500	-89.999466
13968.750000	-90.686615
13992.187500	-91.016182
14015.625000	-91.383820
14039.062500	-91.453972
14062.500000	-92.248672
14085.937500	-92.937805
14109.375000	-93.458122
14132.812500	-93.794685
14156.250000	-94.254829
14179.687500	-95.215103
14203.125000	-96.307396
14226.562500	-96.848000
14250.000000	-97.794106
14273.437500	-100.116341
14296.875000	-102.453598
14320.312500	-103.967026
14343.750000	-104.104347
14367.187500	-105.172348
14390.625000	-103.722260
14414.062500	-102.390366
14437.500000	-100.282372
14460.937500	-98.676529
14484.375000	-98.139984
14507.812500	-97.551376
14531.250000	-96.998825
14554.687500	-96.258926
14578.125000	-96.309753
14601.562500	-96.278206
14625.000000	-96.512390
14648.437500	-96.853821
14671.875000	-97.455467
14695.312500	-97.847672
14718.750000	-98.235580
14742.187500	-98.211708
14765.625000	-98.855171
14789.062500	-99.897766
14812.500000	-100.133904
14835.937500	-98.975769
14859.375000	-97.874504
14882.812500	-96.877869
14906.250000	-95.871506
14929.687500	-94.592453
14953.125000	-93.202225
14976.562500	-92.254303
15000.000000	-91.395416
15023.437500	-90.903511
15046.875000	-90.147942
15070.312500	-89.867516
15093.750000	-89.132713
15117.187500	-88.545143
15140.625000	-88.491379
15164.062500	-88.435318
15187.500000	-88.116547
15210.937500	-88.069588
15234.375000	-87.723175
15257.812500	-87.517479
15281.250000	-88.036217
15304.687500	-87.839478
15328.125000	-87.803467
15351.562500	-87.724922
15375.000000	-87.633408
15398.437500	-87.730698
15421.875000	-87.931007
15445.312500	-88.135796
15468.750000	-88.181625
15492.187500	-88.412415
15515.625000	-88.405258
15539.062500	-88.824722
15562.500000	-88.981918
15585.937500	-89.275566
15609.375000	-89.020073
15632.812500	-89.278915
15656.250000	-89.580048
15679.687500	-89.892570
15703.125000	-90.228935
15726.562500	-90.273926
15750.000000	-90.305397
15773.437500	-90.814926
15796.875000	-91.348824
15820.312500	-91.792046
15843.750000	-91.657471
15867.187500	-92.381615
15890.625000	-93.230133
15914.062500	-93.973465
15937.500000	-94.425415
15960.937500	-94.938446
15984.375000	-95.503418
16007.812500	-95.828461
16031.250000	-96.028419
16054.687500	-95.692909
16078.125000	-96.119629
16101.562500	-95.910721
16125.000000	-95.458366
16148.437500	-94.756172
16171.875000	-94.163483
16195.312500	-93.713531
16218.750000	-93.728714
16242.187500	-93.084694
16265.625000	-92.587303
16289.062500	-92.492531
16312.500000	-92.661842
16335.937500	-92.287743
16359.375000	-92.187813
16382.812500	-91.924232
16406.250000	-91.758118
16429.687500	-91.963829
16453.125000	-91.553299
16476.562500	-91.857109
16500.000000	-92.282455
16523.437500	-92.564461
16546.875000	-92.666992
16570.312500	-93.250252
16593.750000	-93.922623
16617.187500	-94.137535
16640.625000	-94.193993
16664.062500	-94.864120
16687.500000	-95.269165
16710.937500	-95.597481
16734.375000	-96.016899
16757.812500	-96.011559
16781.250000	-96.815125
16804.687500	-97.649529
16828.125000	-97.535027
16851.562500	-97.276176
16875.000000	-98.834602
16898.437500	-100.026283
16921.875000	-100.921417
16945.312500	-100.232895
16968.750000	-101.314880
16992.187500	-102.224709
17015.625000	-102.600441
17039.062500	-101.482285
17062.500000	-102.511848
17085.937500	-103.661438
17109.375000	-103.785545
17132.812500	-102.694824
17156.250000	-102.290718
17179.687500	-103.594490
17203.125000	-103.075890
17226.562500	-102.605797
17250.000000	-101.598633
17273.437500	-102.444389
17296.875000	-101.568825
17320.312500	-101.000534
17343.750000	-99.821327
17367.187500	-100.329170
17390.625000	-100.123688
17414.062500	-99.991989
17437.500000	-98.647247
17460.937500	-98.308807
17484.375000	-98.527451
17507.812500	-98.563217
17531.250000	-98.035965
17554.687500	-97.384422
17578.125000	-98.262817
17601.562500	-98.470192
17625.000000	-98.208313
17648.437500	-97.293755
17671.875000	-98.399452
17695.312500	-98.662941
17718.750000	-98.774666
17742.187500	-98.274910
17765.625000	-98.835289
17789.062500	-98.625076
17812.500000	-98.731903
17835.937500	-98.431564
17859.375000	-98.563179
17882.812500	-98.854713
17906.250000	-98.713951
17929.687500	-98.566093
17953.125000	-97.627228
17976.562500	-91.735947
18000.000000	-92.652939
18023.437500	-98.490845
18046.875000	-98.486130
18070.312500	-98.870224
18093.750000	-98.579178
18117.187500	-98.585732
18140.625000	-97.225922
18164.062500	-98.005081
18187.500000	-98.098190
18210.937500	-97.831123
18234.375000	-97.362854
18257.812500	-97.612740
18281.250000	-97.772430
18304.687500	-97.428284
18328.125000	-96.658775
18351.562500	-96.088028
18375.000000	-96.733131
18398.437500	-96.463661
18421.875000	-96.650238
18445.312500	-95.386261
18468.750000	-96.007324
18492.187500	-96.152725
18515.625000	-96.612457
18539.062500	-96.204338
18562.500000	-96.414146
18585.937500	-96.634071
18609.375000	-96.765076
18632.812500	-96.234421
18656.250000	-96.424332
18679.687500	-97.488823
18703.125000	-97.662125
18726.562500	-97.778885
18750.000000	-97.465279
18773.437500	-98.556824
18796.875000	-98.953911
18820.312500	-99.092911
18843.750000	-98.016838
18867.187500	-98.986084
18890.625000	-99.053558
18914.062500	-99.708138
18937.500000	-99.145248
18960.937500	-99.222420
18984.375000	-99.471367
19007.812500	-99.738724
19031.250000	-98.278244
19054.687500	-97.562294
19078.125000	-98.857391
19101.562500	-98.617393
19125.000000	-98.469971
19148.437500	-96.983604
19171.875000	-98.304031
19195.312500	-98.576775
19218.750000	-98.997757
19242.187500	-97.688263
19265.625000	-98.142403
19289.062500	-98.474792
19312.500000	-98.585526
19335.937500	-97.947784
19359.375000	-98.021935
19382.812500	-98.530724
19406.250000	-98.676796
19429.687500	-97.809547
19453.125000	-97.075554
19476.562500	-98.769302
19500.000000	-98.795464
19523.437500	-98.266159
19546.875000	-97.392410
19570.312500	-98.412155
19593.750000	-98.627022
19617.187500	-98.589607
19640.625000	-97.580574
19664.062500	-98.133911
19687.500000	-98.630676
19710.937500	-99.025620
19734.375000	-98.330147
19757.812500	-98.444084
19781.250000	-98.706596
19804.687500	-98.783478
19828.125000	-98.578491
19851.562500	-98.502129
19875.000000	-98.918945
19898.437500	-98.986771
19921.875000	-98.461472
19945.312500	-96.898132
19968.750000	-98.473572
19992.187500	-98.783951
20015.625000	-98.907600
20039.062500	-98.798683
20062.500000	-99.392647
20085.937500	-99.126511
20109.375000	-99.177147
20132.812500	-99.463562
20156.250000	-99.521759
20179.687500	-100.173035
20203.125000	-100.293259
20226.562500	-100.549698
20250.000000	-100.486374
20273.437500	-100.598534
20296.875000	-100.598892
20320.312500	-100.546455
20343.750000	-99.132103
20367.187500	-100.686172
20390.625000	-101.486649
20414.062500	-101.560692
20437.500000	-101.030243
20460.937500	-101.103165
20484.375000	-101.841873
20507.812500	-102.187904
20531.250000	-102.160027
20554.687500	-102.176071
20578.125000	-102.490036
20601.562500	-102.193405
20625.000000	-102.423515
20648.437500	-102.047531
20671.875000	-102.786850
20695.312500	-103.039261
20718.750000	-103.053642
20742.187500	-103.008934
20765.625000	-103.369820
20789.062500	-103.538437
20812.500000	-103.457916
20835.937500	-102.678307
20859.375000	-103.175644
20882.812500	-103.904999
20906.250000	-103.718262
20929.687500	-104.071526
20953.125000	-103.796181
20976.562500	-104.244377
21000.000000	-104.510834
21023.437500	-104.512909
21046.875000	-104.513626
21070.312500	-104.627617
21093.750000	-105.008400
21117.187500	-104.849213
21140.625000	-104.556107
21164.062500	-105.118378
21187.500000	-105.187141
21210.937500	-105.475540
21234.375000	-104.729187
21257.812500	-104.820595
21281.250000	-105.219849
21304.687500	-105.493469
21328.125000	-105.658943
21351.562500	-105.910233
21375.000000	-106.086441
21398.437500	-106.221794
21421.875000	-106.252846
21445.312500	-105.578079
21468.750000	-106.005669
21492.187500	-106.430161
21515.625000	-106.655685
21539.062500	-105.888321
21562.500000	-106.247078
21585.937500	-106.382713
21609.375000	-106.424026
21632.812500	-106.141037
21656.250000	-106.345886
21679.687500	-106.773003
21703.125000	-106.584312
21726.562500	-106.278481
21750.000000	-106.314926
21773.437500	-106.857582
21796.875000	-107.301857
21820.312500	-107.299553
21843.750000	-107.271851
21867.187500	-107.232895
21890.625000	-107.309990
21914.062500	-107.533844
21937.500000	-107.316483
21960.937500	-107.378723
21984.375000	-107.419029
22007.812500	-107.283867
22031.250000	-107.497581
22054.687500	-107.599625
22078.125000	-107.381401
22101.562500	-108.027420
22125.000000	-107.936272
22148.437500	-107.816353
22171.875000	-107.979759
22195.312500	-107.827026
22218.750000	-107.974991
22242.187500	-107.618080
22265.625000	-107.967827
22289.062500	-107.896088
22312.500000	-108.190773
22335.937500	-108.004791
22359.375000	-108.097794
22382.812500	-108.140678
22406.250000	-108.367554
22429.687500	-108.171844
22453.125000	-108.058830
22476.562500	-107.883995
22500.000000	-107.712410
22523.437500	-107.927155
22546.875000	-107.921211
22570.312500	-107.486244
22593.750000	-105.698586
22617.187500	-108.101814
22640.625000	-108.381821
22664.062500	-108.757446
22687.500000	-108.731041
22710.937500	-108.918190
22734.375000	-108.971680
22757.812500	-108.829002
22781.250000	-108.897659
22804.687500	-109.158333
22828.125000	-109.440804
22851.562500	-109.609001
22875.000000	-109.814613
22898.437500	-109.741776
22921.875000	-109.528625
22945.312500	-108.980156
22968.750000	-109.482170
22992.187500	-109.342522
23015.625000	-109.506195
23039.062500	-109.188782
23062.500000	-109.609886
23085.937500	-109.779198
23109.375000	-109.821716
23132.812500	-109.838936
23156.250000	-109.852554
23179.687500	-109.888252
23203.125000	-109.773811
23226.562500	-109.869423
23250.000000	-109.843956
23273.437500	-110.015434
23296.875000	-109.987572
23320.312500	-110.016800
23343.750000	-110.315895
23367.187500	-110.216057
23390.625000	-110.149040
23414.062500	-110.321907
23437.500000	-110.084816
23460.937500	-110.359398
23484.375000	-110.425262
23507.812500	-110.264389
23531.250000	-110.372902
23554.687500	-111.014984
23578.125000	-110.775040
23601.562500	-110.287811
23625.000000	-110.769531
23648.437500	-110.711021
23671.875000	-110.764412
23695.312500	-110.571350
23718.750000	-110.282951
23742.187500	-109.981606
23765.625000	-110.448578
23789.062500	-110.524261
23812.500000	-110.415611
23835.937500	-110.136543
23859.375000	-110.633598
23882.812500	-111.074173
23906.250000	-110.861389
23929.687500	-110.667442
23953.125000	-110.390373
23976.562500	-110.367058
