Frequency (Hz)	Level (dB)
23.437500	-51.980366
46.875000	-44.185463
70.312500	-48.515984
93.750000	-65.015251
117.187500	-68.068108
140.625000	-76.146225
164.062500	-77.257629
187.500000	-76.847893
210.937500	-77.229370
234.375000	-84.566383
257.812500	-81.948517
281.250000	-74.957260
304.687500	-72.243935
328.125000	-72.419868
351.562500	-68.206467
375.000000	-74.756699
398.437500	-78.822853
421.875000	-79.631897
445.312500	-73.055084
468.750000	-76.384453
492.187500	-83.659554
515.625000	-86.227783
539.062500	-82.884895
562.500000	-83.304581
585.937500	-86.373901
609.375000	-83.582985
632.812500	-73.093910
656.250000	-70.621872
679.687500	-80.151733
703.125000	-87.486214
726.562500	-81.597969
750.000000	-76.403648
773.437500	-81.984421
796.875000	-84.632874
820.312500	-87.871971
843.750000	-86.717064
867.187500	-88.974945
890.625000	-92.701401
914.062500	-88.048203
937.500000	-74.995514
960.937500	-74.790916
984.375000	-86.353195
1007.812500	-88.996323
1031.250000	-92.614151
1054.687500	-90.913498
1078.125000	-94.440163
1101.562500	-94.619606
1125.000000	-90.848801
1148.437500	-85.082603
1171.875000	-89.383560
1195.312500	-93.141182
1218.750000	-89.056496
1242.187500	-83.209038
1265.625000	-84.895584
1289.062500	-90.074707
1312.500000	-92.148354
1335.937500	-89.954445
1359.375000	-89.499863
1382.812500	-96.559929
1406.250000	-96.582138
1429.687500	-99.475098
1453.125000	-98.152634
1476.562500	-98.544655
1500.000000	-94.546341
1523.437500	-95.510399
1546.875000	-89.749237
1570.312500	-91.914902
1593.750000	-89.629944
1617.187500	-88.351097
1640.625000	-88.021141
1664.062500	-88.702110
1687.500000	-89.003067
1710.937500	-88.951187
1734.375000	-86.595474
1757.812500	-85.210587
1781.250000	-85.880470
1804.687500	-84.393341
1828.125000	-82.480263
1851.562500	-81.360573
1875.000000	-80.383804
1898.437500	-79.274445
1921.875000	-77.632401
1945.312500	-75.481422
1968.750000	-73.051666
1992.187500	-69.868240
2015.625000	-66.442398
2039.062500	-63.067322
2062.500000	-61.410725
2085.937500	-61.558590
2109.375000	-61.911541
2132.812500	-62.864059
2156.250000	-65.171547
2179.687500	-67.726700
2203.125000	-69.592873
2226.562500	-71.077644
2250.000000	-72.959656
2273.437500	-73.780342
2296.875000	-74.594864
2320.312500	-75.468689
2343.750000	-75.897400
2367.187500	-76.917839
2390.625000	-76.914879
2414.062500	-76.755379
2437.500000	-77.586700
2460.937500	-78.607368
2484.375000	-79.911133
2507.812500	-80.800087
2531.250000	-81.243019
2554.687500	-81.853584
2578.125000	-82.305145
2601.562500	-82.909630
2625.000000	-83.850555
2648.437500	-83.859795
2671.875000	-84.569801
2695.312500	-85.940109
2718.750000	-87.040710
2742.187500	-88.079315
2765.625000	-87.817619
2789.062500	-86.735825
2812.500000	-86.018867
2835.937500	-85.627571
2859.375000	-85.563011
2882.812500	-85.971176
2906.250000	-87.050232
2929.687500	-89.185295
2953.125000	-91.262413
2976.562500	-91.025543
3000.000000	-90.153793
3023.437500	-88.154289
3046.875000	-85.925537
3070.312500	-84.891815
3093.750000	-84.036011
3117.187500	-84.693962
3140.625000	-87.061813
3164.062500	-91.142372
3187.500000	-97.840195
3210.937500	-95.365311
3234.375000	-87.904312
3257.812500	-82.420517
3281.250000	-77.509422
3304.687500	-73.590927
3328.125000	-71.177261
3351.562500	-70.803352
3375.000000	-71.857918
3398.437500	-73.166496
3421.875000	-74.272316
3445.312500	-74.267685
3468.750000	-74.830574
3492.187500	-75.384338
3515.625000	-75.542557
3539.062500	-76.558815
3562.500000	-77.788658
3585.937500	-78.280296
3609.375000	-79.217972
3632.812500	-81.056061
3656.250000	-82.329193
3679.687500	-82.832260
3703.125000	-83.892982
3726.562500	-84.515923
3750.000000	-83.937965
3773.437500	-84.311813
3796.875000	-84.942711
3820.312500	-84.900749
3843.750000	-84.467232
3867.187500	-83.377983
3890.625000	-82.220894
3914.062500	-81.518288
3937.500000	-81.090500
3960.937500	-80.762901
3984.375000	-80.166672
4007.812500	-79.954895
4031.250000	-80.749847
4054.687500	-83.582130
4078.125000	-89.126289
4101.562500	-89.294266
4125.000000	-84.271759
4148.437500	-80.732880
4171.875000	-78.918228
4195.312500	-78.500465
4218.750000	-78.307755
4242.187500	-77.948997
4265.625000	-78.400810
4289.062500	-79.562347
4312.500000	-80.524483
4335.937500	-81.105202
4359.375000	-81.945450
4382.812500	-83.052315
4406.250000	-84.852791
4429.687500	-87.584976
4453.125000	-88.403313
4476.562500	-87.414345
4500.000000	-86.224266
4523.437500	-85.993561
4546.875000	-85.839409
4570.312500	-85.703926
4593.750000	-85.761841
4617.187500	-85.721039
4640.625000	-85.736008
4664.062500	-86.255768
4687.500000	-86.654732
4710.937500	-87.248154
4734.375000	-87.995033
4757.812500	-88.554169
4781.250000	-88.419052
4804.687500	-87.781067
4828.125000	-87.630623
4851.562500	-87.961578
4875.000000	-88.655373
4898.437500	-89.335785
4921.875000	-89.718857
4945.312500	-90.238625
4968.750000	-91.500267
4992.187500	-92.434250
5015.625000	-93.290871
5039.062500	-94.174706
5062.500000	-94.729492
5085.937500	-95.410164
5109.375000	-95.233276
5132.812500	-92.996033
5156.250000	-89.592049
5179.687500	-86.950806
5203.125000	-85.358986
5226.562500	-84.437683
5250.000000	-84.354385
5273.437500	-85.528244
5296.875000	-86.585426
5320.312500	-87.334229
5343.750000	-88.041252
5367.187500	-89.709732
5390.625000	-91.947174
5414.062500	-95.227631
5437.500000	-96.612045
5460.937500	-93.116882
5484.375000	-90.888008
5507.812500	-90.159508
5531.250000	-89.762016
5554.687500	-89.174690
5578.125000	-88.322708
5601.562500	-85.482605
5625.000000	-81.926842
5648.437500	-78.821945
5671.875000	-76.005066
5695.312500	-73.810280
5718.750000	-72.368866
5742.187500	-71.066208
5765.625000	-70.166107
5789.062500	-69.471794
5812.500000	-69.466187
5835.937500	-69.475624
5859.375000	-69.248070
5882.812500	-69.110703
5906.250000	-69.710625
5929.687500	-70.101105
5953.125000	-71.427284
5976.562500	-72.987282
6000.000000	-73.985947
6023.437500	-74.551590
6046.875000	-73.622673
6070.312500	-72.415985
6093.750000	-70.859375
6117.187500	-69.640442
6140.625000	-69.147133
6164.062500	-68.899071
6187.500000	-69.253609
6210.937500	-69.850685
6234.375000	-71.285339
6257.812500	-72.105591
6281.250000	-72.992973
6304.687500	-73.656105
6328.125000	-74.183136
6351.562500	-73.881340
6375.000000	-73.799194
6398.437500	-73.600708
6421.875000	-73.039917
6445.312500	-72.787498
6468.750000	-73.110901
6492.187500	-73.431122
6515.625000	-74.101036
6539.062500	-75.199516
6562.500000	-76.173317
6585.937500	-76.981270
6609.375000	-77.836731
6632.812500	-78.394791
6656.250000	-79.031410
6679.687500	-78.837830
6703.125000	-77.665314
6726.562500	-77.568810
6750.000000	-77.873299
6773.437500	-77.833382
6796.875000	-78.201721
6820.312500	-78.412605
6843.750000	-78.465660
6867.187500	-78.098106
6890.625000	-78.201851
6914.062500	-77.998825
6937.500000	-77.676781
6960.937500	-77.698967
6984.375000	-78.064110
7007.812500	-78.235085
7031.250000	-78.658798
7054.687500	-78.972885
7078.125000	-79.277931
7101.562500	-79.600014
7125.000000	-80.387604
7148.437500	-81.587914
7171.875000	-82.892685
7195.312500	-83.495651
7218.750000	-84.953445
7242.187500	-86.544952
7265.625000	-88.225365
7289.062500	-89.507530
7312.500000	-90.894157
7335.937500	-91.687317
7359.375000	-92.385757
7382.812500	-92.497063
7406.250000	-92.383278
7429.687500	-92.271774
7453.125000	-92.062408
7476.562500	-91.507851
7500.000000	-90.347466
7523.437500	-88.686401
7546.875000	-87.342789
7570.312500	-86.183205
7593.750000	-86.072556
7617.187500	-85.914429
7640.625000	-85.935867
7664.062500	-86.340645
7687.500000	-87.272598
7710.937500	-88.460762
7734.375000	-90.294792
7757.812500	-91.998070
7781.250000	-93.893318
7804.687500	-96.126923
7828.125000	-97.634575
7851.562500	-98.192459
7875.000000	-97.720573
7898.437500	-96.852516
7921.875000	-95.703667
7945.312500	-94.753426
7968.750000	-94.843933
7992.187500	-95.682716
8015.625000	-96.607613
8039.062500	-97.864647
8062.500000	-99.966003
8085.937500	-102.693451
8109.375000	-103.152489
8132.812500	-101.460297
8156.250000	-100.661057
8179.687500	-100.451759
8203.125000	-101.143280
8226.562500	-101.256279
8250.000000	-100.914085
8273.437500	-101.652626
8296.875000	-101.583839
8320.312500	-100.840942
8343.750000	-98.727005
8367.187500	-98.194199
8390.625000	-97.544380
8414.062500	-96.585648
8437.500000	-95.820122
8460.937500	-94.814613
8484.375000	-93.713760
8507.812500	-92.451569
8531.250000	-91.083122
8554.687500	-90.916222
8578.125000	-89.854172
8601.562500	-89.044106
8625.000000	-88.941597
8648.437500	-88.564217
8671.875000	-88.399292
8695.312500	-88.925812
8718.750000	-89.624306
8742.187500	-90.965157
8765.625000	-91.977127
8789.062500	-92.566795
8812.500000	-93.290512
8835.937500	-93.331665
8859.375000	-93.595573
8882.812500	-93.767235
8906.250000	-93.689949
8929.687500	-93.677422
8953.125000	-93.659248
8976.562500	-93.723938
9000.000000	-93.524567
9023.437500	-93.655014
9046.875000	-93.672112
9070.312500	-93.572487
9093.750000	-93.709427
9117.187500	-93.461853
9140.625000	-93.188324
9164.062500	-93.374535
9187.500000	-94.022919
9210.937500	-95.327850
9234.375000	-96.638878
9257.812500	-97.037827
9281.250000	-95.792458
9304.687500	-94.567856
9328.125000	-92.593521
9351.562500	-90.911743
9375.000000	-90.000473
9398.437500	-89.036034
9421.875000	-88.602669
9445.312500	-88.496223
9468.750000	-88.519508
9492.187500	-88.816338
9515.625000	-89.154213
9539.062500	-89.671059
9562.500000	-90.588493
9585.937500	-91.823967
9609.375000	-92.204002
9632.812500	-92.615150
9656.250000	-92.084869
9679.687500	-91.365387
9703.125000	-91.185936
9726.562500	-90.682777
9750.000000	-90.293816
9773.437500	-89.845718
9796.875000	-89.116669
9820.312500	-88.324982
9843.750000	-88.120720
9867.187500	-88.108643
9890.625000	-88.099396
9914.062500	-88.211288
9937.500000	-87.551559
9960.937500	-87.487228
9984.375000	-87.681519
10007.812500	-87.773308
10031.250000	-88.204575
10054.687500	-88.533195
10078.125000	-88.900528
10101.562500	-89.335854
10125.000000	-89.184265
10148.437500	-88.591843
10171.875000	-88.879562
10195.312500	-88.478920
10218.750000	-87.828392
10242.187500	-87.142014
10265.625000	-86.204338
10289.062500	-85.358177
10312.500000	-84.564186
10335.937500	-84.430466
10359.375000	-84.352898
10382.812500	-84.359428
10406.250000	-84.443779
10429.687500	-84.050453
10453.125000	-84.356796
10476.562500	-84.537155
10500.000000	-84.859810
10523.437500	-85.567558
10546.875000	-86.121529
10570.312500	-86.914383
10593.750000	-87.903564
10617.187500	-88.894630
10640.625000	-89.807434
10664.062500	-91.116089
10687.500000	-91.544350
10710.937500	-90.708374
10734.375000	-90.192604
10757.812500	-90.216499
10781.250000	-89.557610
10804.687500	-89.579666
10828.125000	-89.614983
10851.562500	-89.270737
10875.000000	-89.609184
10898.437500	-89.844864
10921.875000	-90.623505
10945.312500	-91.643028
10968.750000	-93.243271
10992.187500	-94.779053
11015.625000	-95.982628
11039.062500	-97.710762
11062.500000	-99.636169
11085.937500	-100.725143
11109.375000	-100.429985
11132.812500	-98.883095
11156.250000	-96.644760
11179.687500	-94.826530
11203.125000	-92.897079
11226.562500	-90.276108
11250.000000	-89.062126
11273.437500	-88.198730
11296.875000	-86.809387
11320.312500	-85.792290
11343.750000	-84.808601
11367.187500	-84.042854
11390.625000	-83.156906
11414.062500	-82.694511
11437.500000	-82.286018
11460.937500	-81.993690
11484.375000	-81.393364
11507.812500	-81.045738
11531.250000	-80.653954
11554.687500	-80.231255
11578.125000	-80.581635
11601.562500	-80.364059
11625.000000	-80.236115
11648.437500	-80.152931
11671.875000	-80.172218
11695.312500	-79.984192
11718.750000	-80.341682
11742.187500	-80.583130
11765.625000	-80.541237
11789.062500	-80.907997
11812.500000	-80.856796
11835.937500	-80.903717
11859.375000	-81.014534
11882.812500	-81.647820
11906.250000	-81.875114
11929.687500	-82.407990
11953.125000	-83.197823
11976.562500	-83.757439
12000.000000	-84.115547
12023.437500	-84.645828
12046.875000	-85.002739
12070.312500	-85.746292
12093.750000	-85.920784
12117.187500	-85.692711
12140.625000	-85.833115
12164.062500	-85.497849
12187.500000	-85.032356
12210.937500	-84.561630
12234.375000	-84.251442
12257.812500	-84.193703
12281.250000	-84.101318
12304.687500	-84.136932
12328.125000	-83.901237
12351.562500	-84.022812
12375.000000	-84.305222
12398.437500	-84.345001
12421.875000	-84.081314
12445.312500	-84.252213
12468.750000	-84.602547
12492.187500	-84.515762
12515.625000	-85.128723
12539.062500	-86.112274
12562.500000	-86.611702
12585.937500	-87.000343
12609.375000	-87.576683
12632.812500	-87.543434
12656.250000	-87.173767
12679.687500	-86.412575
12703.125000	-86.134659
12726.562500	-86.130142
12750.000000	-85.857018
12773.437500	-86.049042
12796.875000	-86.536652
12820.312500	-86.996895
12843.750000	-87.757782
12867.187500	-88.498940
12890.625000	-89.276466
12914.062500	-90.250938
12937.500000	-91.036591
12960.937500	-90.948532
12984.375000	-90.749901
13007.812500	-90.474213
13031.250000	-89.644905
13054.687500	-88.384277
13078.125000	-87.753288
13101.562500	-87.444664
13125.000000	-86.914970
13148.437500	-86.170670
13171.875000	-85.516205
13195.312500	-84.699760
13218.750000	-83.894371
13242.187500	-83.481934
13265.625000	-82.855751
13289.062500	-82.755753
13312.500000	-82.949348
13335.937500	-82.895706
13359.375000	-82.714020
13382.812500	-83.071571
13406.250000	-83.111916
13429.687500	-83.279892
13453.125000	-83.903282
13476.562500	-84.584686
13500.000000	-84.534531
13523.437500	-84.996925
13546.875000	-86.167389
13570.312500	-86.260796
13593.750000	-86.318207
13617.187500	-87.186478
13640.625000	-87.544838
13664.062500	-87.999763
13687.500000	-88.210762
13710.937500	-88.249100
13734.375000	-88.252045
13757.812500	-88.506073
13781.250000	-88.904465
13804.687500	-89.067947
13828.125000	-89.107033
13851.562500	-89.379219
13875.000000	-90.096268
13898.437500	-90.434990
13921.875000	-91.658615
13945.312500	-92.353790
13968.750000	-92.945747
13992.187500	-93.699051
14015.625000	-93.904678
14039.062500	-93.971725
14062.500000	-94.581474
14085.937500	-95.238380
14109.375000	-95.329910
14132.812500	-95.495552
14156.250000	-95.727867
14179.687500	-96.312096
14203.125000	-97.054710
14226.562500	-97.288895
14250.000000	-97.799454
14273.437500	-99.779579
14296.875000	-101.841240
14320.312500	-102.974342
14343.750000	-103.138695
14367.187500	-107.363922
14390.625000	-110.296631
14414.062500	-108.148773
14437.500000	-104.538544
14460.937500	-101.747108
14484.375000	-99.833267
14507.812500	-98.682022
14531.250000	-97.695778
14554.687500	-96.622490
14578.125000	-96.500443
14601.562500	-96.172783
14625.000000	-95.621948
14648.437500	-95.259880
14671.875000	-95.877525
14695.312500	-95.946999
14718.750000	-96.335320
14742.187500	-96.709213
14765.625000	-97.193382
14789.062500	-97.996178
14812.500000	-97.896599
14835.937500	-97.139626
14859.375000	-96.556618
14882.812500	-96.093750
14906.250000	-95.445816
14929.687500	-94.538155
14953.125000	-93.578957
14976.562500	-92.543617
15000.000000	-91.501701
15023.437500	-91.060471
15046.875000	-90.027534
15070.312500	-89.660957
15093.750000	-88.860069
15117.187500	-88.466675
15140.625000	-88.200409
15164.062500	-88.097321
15187.500000	-87.573730
15210.937500	-87.625641
15234.375000	-87.413841
15257.812500	-87.250076
15281.250000	-87.631592
15304.687500	-87.585373
15328.125000	-87.516327
15351.562500	-87.260941
15375.000000	-87.309540
15398.437500	-87.339272
15421.875000	-87.433983
15445.312500	-87.720848
15468.750000	-87.884369
15492.187500	-88.173096
15515.625000	-88.221718
15539.062500	-88.382126
15562.500000	-88.427055
15585.937500	-88.776031
15609.375000	-88.720078
15632.812500	-88.829964
15656.250000	-89.085243
15679.687500	-89.382690
15703.125000	-89.380402
15726.562500	-89.640724
15750.000000	-89.628677
15773.437500	-90.128601
15796.875000	-90.486267
15820.312500	-90.976166
15843.750000	-90.941467
15867.187500	-91.647308
15890.625000	-92.478897
15914.062500	-93.142502
15937.500000	-93.492485
15960.937500	-93.927261
15984.375000	-94.267609
16007.812500	-94.336845
16031.250000	-94.655914
16054.687500	-94.208191
16078.125000	-94.437714
16101.562500	-94.173058
16125.000000	-93.609985
16148.437500	-93.117836
16171.875000	-92.620819
16195.312500	-92.119476
16218.750000	-91.937790
16242.187500	-91.607925
16265.625000	-91.216194
16289.062500	-91.195488
16312.500000	-91.428246
16335.937500	-91.268036
16359.375000	-91.015381
16382.812500	-90.620872
16406.250000	-90.516113
16429.687500	-90.574631
16453.125000	-90.427269
16476.562500	-90.384369
16500.000000	-90.826004
16523.437500	-91.257721
16546.875000	-91.503502
16570.312500	-92.032913
16593.750000	-92.700813
16617.187500	-93.025047
16640.625000	-93.171974
16664.062500	-93.789566
16687.500000	-94.146355
16710.937500	-94.431740
16734.375000	-95.294029
16757.812500	-95.676605
16781.250000	-96.302612
16804.687500	-97.196465
16828.125000	-97.155685
16851.562500	-97.569237
16875.000000	-98.904411
16898.437500	-99.913208
16921.875000	-100.278503
16945.312500	-99.524620
16968.750000	-101.248848
16992.187500	-102.116791
17015.625000	-102.454163
17039.062500	-102.552658
17062.500000	-102.968773
17085.937500	-103.098320
17109.375000	-103.230507
17132.812500	-101.895828
17156.250000	-101.961990
17179.687500	-102.794914
17203.125000	-102.288284
17226.562500	-101.246040
17250.000000	-100.721222
17273.437500	-101.015327
17296.875000	-100.318214
17320.312500	-99.544434
17343.750000	-98.518074
17367.187500	-98.853363
17390.625000	-98.580093
17414.062500	-98.271767
17437.500000	-97.175735
17460.937500	-97.441895
17484.375000	-97.395416
17507.812500	-97.692291
17531.250000	-97.229362
17554.687500	-96.799072
17578.125000	-97.197762
17601.562500	-97.420418
17625.000000	-97.056984
17648.437500	-96.890244
17671.875000	-97.679962
17695.312500	-97.569679
17718.750000	-97.672226
17742.187500	-96.832161
17765.625000	-98.027802
17789.062500	-97.938919
17812.500000	-98.206757
17835.937500	-97.812599
17859.375000	-98.243958
17882.812500	-98.344940
17906.250000	-98.054482
17929.687500	-97.518707
17953.125000	-96.526123
17976.562500	-91.876083
18000.000000	-92.885262
18023.437500	-97.861473
18046.875000	-97.425385
18070.312500	-98.310822
18093.750000	-98.330215
18117.187500	-98.304138
18140.625000	-97.327492
18164.062500	-98.111847
18187.500000	-97.891464
18210.937500	-97.677277
18234.375000	-96.345566
18257.812500	-96.807381
18281.250000	-97.103767
18304.687500	-97.290085
18328.125000	-96.788017
18351.562500	-96.290649
18375.000000	-96.916458
18398.437500	-96.728371
18421.875000	-96.386543
18445.312500	-95.008659
18468.750000	-96.096626
18492.187500	-96.228569
18515.625000	-96.495888
18539.062500	-96.198944
18562.500000	-96.744873
18585.937500	-96.974457
18609.375000	-97.179733
18632.812500	-96.520996
18656.250000	-96.811897
18679.687500	-97.863853
18703.125000	-97.937393
18726.562500	-97.461967
18750.000000	-97.249237
18773.437500	-98.939537
18796.875000	-99.064064
18820.312500	-98.982811
18843.750000	-98.395096
18867.187500	-99.552238
18890.625000	-99.790352
18914.062500	-99.851341
18937.500000	-97.697807
18960.937500	-98.922432
18984.375000	-100.057503
19007.812500	-99.777176
19031.250000	-97.957916
19054.687500	-98.157829
19078.125000	-99.647369
19101.562500	-99.053894
19125.000000	-98.257378
19148.437500	-97.366966
19171.875000	-98.933418
19195.312500	-98.832466
19218.750000	-98.132820
19242.187500	-96.674744
19265.625000	-98.322792
19289.062500	-98.661224
19312.500000	-98.604309
19335.937500	-97.543312
19359.375000	-98.258591
19382.812500	-98.704079
19406.250000	-98.791084
19429.687500	-98.471611
19453.125000	-98.265182
19476.562500	-99.101807
19500.000000	-99.078819
19523.437500	-98.508621
19546.875000	-97.481148
19570.312500	-98.750641
19593.750000	-98.908386
19617.187500	-98.786942
19640.625000	-97.757751
19664.062500	-98.619064
19687.500000	-98.737862
19710.937500	-98.479027
19734.375000	-97.405151
19757.812500	-97.933830
19781.250000	-98.832207
19804.687500	-98.946907
19828.125000	-98.517883
19851.562500	-98.472717
19875.000000	-98.696320
19898.437500	-98.311333
19921.875000	-98.281799
19945.312500	-97.197815
19968.750000	-98.617065
19992.187500	-98.890015
20015.625000	-98.556480
20039.062500	-97.875359
20062.500000	-98.777924
20085.937500	-98.941582
20109.375000	-99.510551
20132.812500	-99.387520
20156.250000	-99.907936
20179.687500	-100.003983
20203.125000	-99.898643
20226.562500	-99.265533
20250.000000	-99.299942
20273.437500	-100.579918
20296.875000	-100.814972
20320.312500	-100.916733
20343.750000	-100.602119
20367.187500	-101.232895
20390.625000	-101.206154
20414.062500	-101.184227
20437.500000	-99.760956
20460.937500	-100.831673
20484.375000	-101.695305
20507.812500	-101.759857
20531.250000	-101.562759
20554.687500	-101.737396
20578.125000	-102.230972
20601.562500	-102.525764
20625.000000	-102.424583
20648.437500	-102.036903
20671.875000	-102.664459
20695.312500	-102.727386
20718.750000	-102.959366
20742.187500	-103.008255
20765.625000	-103.314438
20789.062500	-103.360779
20812.500000	-103.770775
20835.937500	-102.942398
20859.375000	-103.272713
20882.812500	-103.449387
20906.250000	-103.567070
20929.687500	-103.253326
20953.125000	-103.515587
20976.562500	-104.294212
21000.000000	-104.305702
21023.437500	-104.595322
21046.875000	-104.438240
21070.312500	-104.878525
21093.750000	-104.566086
21117.187500	-104.733383
21140.625000	-104.419167
21164.062500	-104.773926
21187.500000	-104.756462
21210.937500	-104.892128
21234.375000	-104.641945
21257.812500	-104.956573
21281.250000	-105.317619
21304.687500	-105.472679
21328.125000	-105.168594
21351.562500	-105.152763
21375.000000	-105.786903
21398.437500	-105.654037
21421.875000	-105.541473
21445.312500	-105.554451
21468.750000	-105.931587
21492.187500	-105.844185
21515.625000	-106.216553
21539.062500	-105.956978
21562.500000	-106.296310
21585.937500	-106.111923
21609.375000	-106.617607
21632.812500	-106.542824
21656.250000	-106.882843
21679.687500	-106.847000
21703.125000	-106.751076
21726.562500	-106.555855
21750.000000	-106.403259
21773.437500	-106.941925
21796.875000	-106.817787
21820.312500	-106.977180
21843.750000	-106.521805
21867.187500	-107.508087
21890.625000	-107.622086
21914.062500	-107.560760
21937.500000	-107.324440
21960.937500	-107.621155
21984.375000	-107.410591
22007.812500	-107.470810
22031.250000	-106.868759
22054.687500	-107.240341
22078.125000	-107.510971
22101.562500	-107.600487
22125.000000	-108.018799
22148.437500	-107.758453
22171.875000	-107.998856
22195.312500	-108.024864
22218.750000	-107.947990
22242.187500	-107.537697
22265.625000	-108.082268
22289.062500	-107.614449
22312.500000	-108.040100
22335.937500	-108.302940
22359.375000	-108.469246
22382.812500	-108.069649
22406.250000	-107.903923
22429.687500	-107.842880
22453.125000	-108.030624
22476.562500	-108.327820
22500.000000	-108.650581
22523.437500	-108.338799
22546.875000	-107.754303
22570.312500	-107.391602
22593.750000	-105.854233
22617.187500	-108.622231
22640.625000	-108.939041
22664.062500	-108.711906
22687.500000	-108.897583
22710.937500	-109.075188
22734.375000	-108.755508
22757.812500	-109.122589
22781.250000	-109.139397
22804.687500	-109.221840
22828.125000	-109.065994
22851.562500	-109.047569
22875.000000	-108.965790
22898.437500	-109.074890
22921.875000	-108.963509
22945.312500	-109.024467
22968.750000	-109.547646
22992.187500	-109.475319
23015.625000	-109.525070
23039.062500	-108.983704
23062.500000	-109.294594
23085.937500	-109.595314
23109.375000	-109.499840
23132.812500	-109.301155
23156.250000	-109.544533
23179.687500	-109.685349
23203.125000	-109.798920
23226.562500	-109.742462
23250.000000	-109.153145
23273.437500	-109.470741
23296.875000	-109.794182
23320.312500	-109.688499
23343.750000	-109.672684
23367.187500	-110.116875
23390.625000	-110.099876
23414.062500	-110.180710
23437.500000	-109.730743
23460.937500	-109.905136
23484.375000	-109.862267
23507.812500	-110.355194
23531.250000	-110.089203
23554.687500	-110.128723
23578.125000	-109.977303
23601.562500	-110.457848
23625.000000	-110.135216
23648.437500	-109.917587
23671.875000	-110.101593
23695.312500	-110.122589
23718.750000	-109.854721
23742.187500	-109.958458
23765.625000	-110.119125
23789.062500	-109.979454
23812.500000	-109.982124
23835.937500	-110.216225
23859.375000	-110.176247
23882.812500	-110.214783
23906.250000	-110.130379
23929.687500	-109.873390
23953.125000	-109.796501
23976.562500	-109.769508
